"STUDYID","USUBJID","VSTESTCD","VSTEST","VSORRES","VSORRESU"
"STUDY1","STUDY1-701-1015","TEMP","Temperature",96.9,"F"
"STUDY1","STUDY1-701-1015","TEMP","Temperature",97,"F"
"STUDY1","STUDY1-701-1015","TEMP","Temperature",97.2,"F"
"STUDY1","STUDY1-701-1015","TEMP","Temperature",96.6,"F"
"STUDY1","STUDY1-701-1015","TEMP","Temperature",97.7,"F"
"STUDY1","STUDY1-701-1015","TEMP","Temperature",97,"F"
"STUDY1","STUDY1-701-1015","TEMP","Temperature",97.5,"F"
"STUDY1","STUDY1-701-1015","TEMP","Temperature",97.4,"F"
"STUDY1","STUDY1-701-1015","TEMP","Temperature",98,"F"
"STUDY1","STUDY1-701-1015","TEMP","Temperature",97.4,"F"
"STUDY1","STUDY1-701-1015","TEMP","Temperature",97.9,"F"
"STUDY1","STUDY1-701-1015","TEMP","Temperature",97.4,"F"
"STUDY1","STUDY1-701-1015","TEMP","Temperature",97.7,"F"
"STUDY1","STUDY1-701-1015","TEMP","Temperature",97.2,"F"
"STUDY1","STUDY1-701-1023","TEMP","Temperature",97.8,"F"
"STUDY1","STUDY1-701-1023","TEMP","Temperature",97.8,"F"
"STUDY1","STUDY1-701-1023","TEMP","Temperature",97.3,"F"
"STUDY1","STUDY1-701-1023","TEMP","Temperature",97.6,"F"
"STUDY1","STUDY1-701-1023","TEMP","Temperature",98.5,"F"
"STUDY1","STUDY1-701-1023","TEMP","Temperature",97.2,"F"
"STUDY1","STUDY1-701-1023","TEMP","Temperature",97.8,"F"
"STUDY1","STUDY1-701-1028","TEMP","Temperature",98.5,"F"
"STUDY1","STUDY1-701-1028","TEMP","Temperature",96.7,"F"
"STUDY1","STUDY1-701-1028","TEMP","Temperature",98.6,"F"
"STUDY1","STUDY1-701-1028","TEMP","Temperature",98.2,"F"
"STUDY1","STUDY1-701-1028","TEMP","Temperature",99,"F"
"STUDY1","STUDY1-701-1028","TEMP","Temperature",98.5,"F"
"STUDY1","STUDY1-701-1028","TEMP","Temperature",98.2,"F"
"STUDY1","STUDY1-701-1028","TEMP","Temperature",97.7,"F"
"STUDY1","STUDY1-701-1028","TEMP","Temperature",98.1,"F"
"STUDY1","STUDY1-701-1028","TEMP","Temperature",98.3,"F"
"STUDY1","STUDY1-701-1028","TEMP","Temperature",97.8,"F"
"STUDY1","STUDY1-701-1028","TEMP","Temperature",97.6,"F"
"STUDY1","STUDY1-701-1028","TEMP","Temperature",98.8,"F"
"STUDY1","STUDY1-701-1028","TEMP","Temperature",97.8,"F"
"STUDY1","STUDY1-701-1033","TEMP","Temperature",98.7,"F"
"STUDY1","STUDY1-701-1033","TEMP","Temperature",98.9,"F"
"STUDY1","STUDY1-701-1033","TEMP","Temperature",98.8,"F"
"STUDY1","STUDY1-701-1033","TEMP","Temperature",98,"F"
"STUDY1","STUDY1-701-1033","TEMP","Temperature",98.1,"F"
"STUDY1","STUDY1-701-1033","TEMP","Temperature",98.1,"F"
"STUDY1","STUDY1-701-1033","TEMP","Temperature",98.1,"F"
"STUDY1","STUDY1-701-1034","TEMP","Temperature",97.2,"F"
"STUDY1","STUDY1-701-1034","TEMP","Temperature",97.7,"F"
"STUDY1","STUDY1-701-1034","TEMP","Temperature",98.5,"F"
"STUDY1","STUDY1-701-1034","TEMP","Temperature",97.8,"F"
"STUDY1","STUDY1-701-1034","TEMP","Temperature",97.9,"F"
"STUDY1","STUDY1-701-1034","TEMP","Temperature",98.3,"F"
"STUDY1","STUDY1-701-1034","TEMP","Temperature",98.7,"F"
"STUDY1","STUDY1-701-1034","TEMP","Temperature",98.1,"F"
"STUDY1","STUDY1-701-1034","TEMP","Temperature",98.7,"F"
"STUDY1","STUDY1-701-1034","TEMP","Temperature",98.5,"F"
"STUDY1","STUDY1-701-1034","TEMP","Temperature",98.4,"F"
"STUDY1","STUDY1-701-1034","TEMP","Temperature",98.1,"F"
"STUDY1","STUDY1-701-1034","TEMP","Temperature",97.8,"F"
"STUDY1","STUDY1-701-1047","TEMP","Temperature",97.9,"F"
"STUDY1","STUDY1-701-1047","TEMP","Temperature",97.5,"F"
"STUDY1","STUDY1-701-1047","TEMP","Temperature",97,"F"
"STUDY1","STUDY1-701-1047","TEMP","Temperature",98.9,"F"
"STUDY1","STUDY1-701-1047","TEMP","Temperature",97.8,"F"
"STUDY1","STUDY1-701-1047","TEMP","Temperature",98.5,"F"
"STUDY1","STUDY1-701-1047","TEMP","Temperature",98.4,"F"
"STUDY1","STUDY1-701-1097","TEMP","Temperature",96.4,"F"
"STUDY1","STUDY1-701-1097","TEMP","Temperature",98.1,"F"
"STUDY1","STUDY1-701-1097","TEMP","Temperature",97.6,"F"
"STUDY1","STUDY1-701-1097","TEMP","Temperature",97.9,"F"
"STUDY1","STUDY1-701-1097","TEMP","Temperature",97.7,"F"
"STUDY1","STUDY1-701-1097","TEMP","Temperature",93.7,"F"
"STUDY1","STUDY1-701-1097","TEMP","Temperature",98,"F"
"STUDY1","STUDY1-701-1097","TEMP","Temperature",97.6,"F"
"STUDY1","STUDY1-701-1097","TEMP","Temperature",98.3,"F"
"STUDY1","STUDY1-701-1097","TEMP","Temperature",97.5,"F"
"STUDY1","STUDY1-701-1097","TEMP","Temperature",98.1,"F"
"STUDY1","STUDY1-701-1097","TEMP","Temperature",97.6,"F"
"STUDY1","STUDY1-701-1097","TEMP","Temperature",98.6,"F"
"STUDY1","STUDY1-701-1097","TEMP","Temperature",97.8,"F"
"STUDY1","STUDY1-701-1111","TEMP","Temperature",98.6,"F"
"STUDY1","STUDY1-701-1111","TEMP","Temperature",97.9,"F"
"STUDY1","STUDY1-701-1111","TEMP","Temperature",98.1,"F"
"STUDY1","STUDY1-701-1111","TEMP","Temperature",98.8,"F"
"STUDY1","STUDY1-701-1111","TEMP","Temperature",97.7,"F"
"STUDY1","STUDY1-701-1115","TEMP","Temperature",97.4,"F"
"STUDY1","STUDY1-701-1115","TEMP","Temperature",97.2,"F"
"STUDY1","STUDY1-701-1115","TEMP","Temperature",98,"F"
"STUDY1","STUDY1-701-1115","TEMP","Temperature",97.4,"F"
"STUDY1","STUDY1-701-1115","TEMP","Temperature",98,"F"
"STUDY1","STUDY1-701-1115","TEMP","Temperature",97.7,"F"
"STUDY1","STUDY1-701-1115","TEMP","Temperature",97.3,"F"
"STUDY1","STUDY1-701-1115","TEMP","Temperature",97.6,"F"
"STUDY1","STUDY1-701-1115","TEMP","Temperature",97.6,"F"
"STUDY1","STUDY1-701-1115","TEMP","Temperature",97.4,"F"
"STUDY1","STUDY1-701-1118","TEMP","Temperature",98.4,"F"
"STUDY1","STUDY1-701-1118","TEMP","Temperature",97.5,"F"
"STUDY1","STUDY1-701-1118","TEMP","Temperature",97.5,"F"
"STUDY1","STUDY1-701-1118","TEMP","Temperature",97.6,"F"
"STUDY1","STUDY1-701-1118","TEMP","Temperature",98.1,"F"
"STUDY1","STUDY1-701-1118","TEMP","Temperature",98.3,"F"
"STUDY1","STUDY1-701-1118","TEMP","Temperature",97.9,"F"
"STUDY1","STUDY1-701-1118","TEMP","Temperature",98.3,"F"
"STUDY1","STUDY1-701-1118","TEMP","Temperature",98,"F"
"STUDY1","STUDY1-701-1118","TEMP","Temperature",98.1,"F"
"STUDY1","STUDY1-701-1118","TEMP","Temperature",97.2,"F"
"STUDY1","STUDY1-701-1118","TEMP","Temperature",99.8,"F"
"STUDY1","STUDY1-701-1118","TEMP","Temperature",98.6,"F"
"STUDY1","STUDY1-701-1118","TEMP","Temperature",98.2,"F"
"STUDY1","STUDY1-701-1130","TEMP","Temperature",97.6,"F"
"STUDY1","STUDY1-701-1130","TEMP","Temperature",96.3,"F"
"STUDY1","STUDY1-701-1130","TEMP","Temperature",96.8,"F"
"STUDY1","STUDY1-701-1130","TEMP","Temperature",97.5,"F"
"STUDY1","STUDY1-701-1130","TEMP","Temperature",98.2,"F"
"STUDY1","STUDY1-701-1130","TEMP","Temperature",98.2,"F"
"STUDY1","STUDY1-701-1130","TEMP","Temperature",98,"F"
"STUDY1","STUDY1-701-1130","TEMP","Temperature",97.8,"F"
"STUDY1","STUDY1-701-1130","TEMP","Temperature",96.1,"F"
"STUDY1","STUDY1-701-1130","TEMP","Temperature",98.2,"F"
"STUDY1","STUDY1-701-1130","TEMP","Temperature",97.4,"F"
"STUDY1","STUDY1-701-1130","TEMP","Temperature",97.3,"F"
"STUDY1","STUDY1-701-1130","TEMP","Temperature",97.2,"F"
"STUDY1","STUDY1-701-1130","TEMP","Temperature",97.1,"F"
"STUDY1","STUDY1-701-1133","TEMP","Temperature",97.7,"F"
"STUDY1","STUDY1-701-1133","TEMP","Temperature",97.5,"F"
"STUDY1","STUDY1-701-1133","TEMP","Temperature",97.5,"F"
"STUDY1","STUDY1-701-1133","TEMP","Temperature",98.5,"F"
"STUDY1","STUDY1-701-1133","TEMP","Temperature",97.8,"F"
"STUDY1","STUDY1-701-1133","TEMP","Temperature",97.4,"F"
"STUDY1","STUDY1-701-1133","TEMP","Temperature",97.5,"F"
"STUDY1","STUDY1-701-1133","TEMP","Temperature",96.6,"F"
"STUDY1","STUDY1-701-1133","TEMP","Temperature",97.8,"F"
"STUDY1","STUDY1-701-1133","TEMP","Temperature",98.4,"F"
"STUDY1","STUDY1-701-1133","TEMP","Temperature",98.3,"F"
"STUDY1","STUDY1-701-1133","TEMP","Temperature",97.6,"F"
"STUDY1","STUDY1-701-1133","TEMP","Temperature",98.9,"F"
"STUDY1","STUDY1-701-1133","TEMP","Temperature",98.5,"F"
"STUDY1","STUDY1-701-1146","TEMP","Temperature",99.2,"F"
"STUDY1","STUDY1-701-1146","TEMP","Temperature",97.3,"F"
"STUDY1","STUDY1-701-1146","TEMP","Temperature",97.6,"F"
"STUDY1","STUDY1-701-1146","TEMP","Temperature",97.8,"F"
"STUDY1","STUDY1-701-1146","TEMP","Temperature",97.9,"F"
"STUDY1","STUDY1-701-1146","TEMP","Temperature",97.4,"F"
"STUDY1","STUDY1-701-1146","TEMP","Temperature",98.6,"F"
"STUDY1","STUDY1-701-1146","TEMP","Temperature",98.1,"F"
"STUDY1","STUDY1-701-1148","TEMP","Temperature",97.5,"F"
"STUDY1","STUDY1-701-1148","TEMP","Temperature",97.9,"F"
"STUDY1","STUDY1-701-1148","TEMP","Temperature",97.8,"F"
"STUDY1","STUDY1-701-1148","TEMP","Temperature",97.7,"F"
"STUDY1","STUDY1-701-1148","TEMP","Temperature",98.5,"F"
"STUDY1","STUDY1-701-1148","TEMP","Temperature",98.7,"F"
"STUDY1","STUDY1-701-1148","TEMP","Temperature",97.8,"F"
"STUDY1","STUDY1-701-1148","TEMP","Temperature",97.9,"F"
"STUDY1","STUDY1-701-1148","TEMP","Temperature",97.8,"F"
"STUDY1","STUDY1-701-1148","TEMP","Temperature",97.8,"F"
"STUDY1","STUDY1-701-1148","TEMP","Temperature",98,"F"
"STUDY1","STUDY1-701-1148","TEMP","Temperature",97.6,"F"
"STUDY1","STUDY1-701-1148","TEMP","Temperature",97.6,"F"
"STUDY1","STUDY1-701-1148","TEMP","Temperature",97.5,"F"
"STUDY1","STUDY1-701-1153","TEMP","Temperature",98.3,"F"
"STUDY1","STUDY1-701-1153","TEMP","Temperature",98.4,"F"
"STUDY1","STUDY1-701-1153","TEMP","Temperature",98.5,"F"
"STUDY1","STUDY1-701-1153","TEMP","Temperature",98.2,"F"
"STUDY1","STUDY1-701-1153","TEMP","Temperature",98.3,"F"
"STUDY1","STUDY1-701-1153","TEMP","Temperature",99,"F"
"STUDY1","STUDY1-701-1153","TEMP","Temperature",98.9,"F"
"STUDY1","STUDY1-701-1153","TEMP","Temperature",98.1,"F"
"STUDY1","STUDY1-701-1153","TEMP","Temperature",98.3,"F"
"STUDY1","STUDY1-701-1153","TEMP","Temperature",98.2,"F"
"STUDY1","STUDY1-701-1153","TEMP","Temperature",98.5,"F"
"STUDY1","STUDY1-701-1153","TEMP","Temperature",97.6,"F"
"STUDY1","STUDY1-701-1153","TEMP","Temperature",98.9,"F"
"STUDY1","STUDY1-701-1153","TEMP","Temperature",97.7,"F"
"STUDY1","STUDY1-701-1180","TEMP","Temperature",98.5,"F"
"STUDY1","STUDY1-701-1180","TEMP","Temperature",98.6,"F"
"STUDY1","STUDY1-701-1180","TEMP","Temperature",97.8,"F"
"STUDY1","STUDY1-701-1180","TEMP","Temperature",97.8,"F"
"STUDY1","STUDY1-701-1180","TEMP","Temperature",98.7,"F"
"STUDY1","STUDY1-701-1180","TEMP","Temperature",97.9,"F"
"STUDY1","STUDY1-701-1180","TEMP","Temperature",98.9,"F"
"STUDY1","STUDY1-701-1180","TEMP","Temperature",99.2,"F"
"STUDY1","STUDY1-701-1181","TEMP","Temperature",97.9,"F"
"STUDY1","STUDY1-701-1181","TEMP","Temperature",96.6,"F"
"STUDY1","STUDY1-701-1181","TEMP","Temperature",97.7,"F"
"STUDY1","STUDY1-701-1181","TEMP","Temperature",95.2,"F"
"STUDY1","STUDY1-701-1181","TEMP","Temperature",97,"F"
"STUDY1","STUDY1-701-1188","TEMP","Temperature",97.4,"F"
"STUDY1","STUDY1-701-1188","TEMP","Temperature",98.7,"F"
"STUDY1","STUDY1-701-1188","TEMP","Temperature",97.3,"F"
"STUDY1","STUDY1-701-1188","TEMP","Temperature",97.5,"F"
"STUDY1","STUDY1-701-1188","TEMP","Temperature",97.3,"F"
"STUDY1","STUDY1-701-1188","TEMP","Temperature",96.8,"F"
"STUDY1","STUDY1-701-1188","TEMP","Temperature",98.6,"F"
"STUDY1","STUDY1-701-1188","TEMP","Temperature",97.7,"F"
"STUDY1","STUDY1-701-1188","TEMP","Temperature",97.8,"F"
"STUDY1","STUDY1-701-1192","TEMP","Temperature",98,"F"
"STUDY1","STUDY1-701-1192","TEMP","Temperature",98.6,"F"
"STUDY1","STUDY1-701-1192","TEMP","Temperature",98.3,"F"
"STUDY1","STUDY1-701-1192","TEMP","Temperature",97.9,"F"
"STUDY1","STUDY1-701-1192","TEMP","Temperature",97.6,"F"
"STUDY1","STUDY1-701-1192","TEMP","Temperature",98.6,"F"
"STUDY1","STUDY1-701-1192","TEMP","Temperature",97.9,"F"
"STUDY1","STUDY1-701-1192","TEMP","Temperature",98.6,"F"
"STUDY1","STUDY1-701-1192","TEMP","Temperature",98.9,"F"
"STUDY1","STUDY1-701-1192","TEMP","Temperature",98.3,"F"
"STUDY1","STUDY1-701-1192","TEMP","Temperature",97.2,"F"
"STUDY1","STUDY1-701-1192","TEMP","Temperature",98.9,"F"
"STUDY1","STUDY1-701-1192","TEMP","Temperature",98.3,"F"
"STUDY1","STUDY1-701-1192","TEMP","Temperature",98.6,"F"
"STUDY1","STUDY1-701-1203","TEMP","Temperature",98,"F"
"STUDY1","STUDY1-701-1203","TEMP","Temperature",98.2,"F"
"STUDY1","STUDY1-701-1203","TEMP","Temperature",98.4,"F"
"STUDY1","STUDY1-701-1203","TEMP","Temperature",97.8,"F"
"STUDY1","STUDY1-701-1203","TEMP","Temperature",98.5,"F"
"STUDY1","STUDY1-701-1203","TEMP","Temperature",97.7,"F"
"STUDY1","STUDY1-701-1203","TEMP","Temperature",97.3,"F"
"STUDY1","STUDY1-701-1203","TEMP","Temperature",97.6,"F"
"STUDY1","STUDY1-701-1203","TEMP","Temperature",98.1,"F"
"STUDY1","STUDY1-701-1203","TEMP","Temperature",98.5,"F"
"STUDY1","STUDY1-701-1203","TEMP","Temperature",97.6,"F"
"STUDY1","STUDY1-701-1203","TEMP","Temperature",98,"F"
"STUDY1","STUDY1-701-1203","TEMP","Temperature",97.4,"F"
"STUDY1","STUDY1-701-1211","TEMP","Temperature",99.6,"F"
"STUDY1","STUDY1-701-1211","TEMP","Temperature",98.7,"F"
"STUDY1","STUDY1-701-1211","TEMP","Temperature",97.8,"F"
"STUDY1","STUDY1-701-1211","TEMP","Temperature",97.5,"F"
"STUDY1","STUDY1-701-1211","TEMP","Temperature",97,"F"
"STUDY1","STUDY1-701-1211","TEMP","Temperature",97.8,"F"
"STUDY1","STUDY1-701-1211","TEMP","Temperature",96.7,"F"
"STUDY1","STUDY1-701-1211","TEMP","Temperature",96.2,"F"
"STUDY1","STUDY1-701-1211","TEMP","Temperature",97.2,"F"
"STUDY1","STUDY1-701-1234","TEMP","Temperature",97.8,"F"
"STUDY1","STUDY1-701-1234","TEMP","Temperature",97,"F"
"STUDY1","STUDY1-701-1234","TEMP","Temperature",98.2,"F"
"STUDY1","STUDY1-701-1234","TEMP","Temperature",97.1,"F"
"STUDY1","STUDY1-701-1234","TEMP","Temperature",97.3,"F"
"STUDY1","STUDY1-701-1234","TEMP","Temperature",97.9,"F"
"STUDY1","STUDY1-701-1234","TEMP","Temperature",97.1,"F"
"STUDY1","STUDY1-701-1234","TEMP","Temperature",97.1,"F"
"STUDY1","STUDY1-701-1234","TEMP","Temperature",97.7,"F"
"STUDY1","STUDY1-701-1234","TEMP","Temperature",97.2,"F"
"STUDY1","STUDY1-701-1234","TEMP","Temperature",98,"F"
"STUDY1","STUDY1-701-1234","TEMP","Temperature",97.5,"F"
"STUDY1","STUDY1-701-1234","TEMP","Temperature",98.5,"F"
"STUDY1","STUDY1-701-1234","TEMP","Temperature",97.6,"F"
"STUDY1","STUDY1-701-1239","TEMP","Temperature",98.1,"F"
"STUDY1","STUDY1-701-1239","TEMP","Temperature",98,"F"
"STUDY1","STUDY1-701-1239","TEMP","Temperature",98.6,"F"
"STUDY1","STUDY1-701-1239","TEMP","Temperature",97.4,"F"
"STUDY1","STUDY1-701-1239","TEMP","Temperature",99,"F"
"STUDY1","STUDY1-701-1239","TEMP","Temperature",98,"F"
"STUDY1","STUDY1-701-1239","TEMP","Temperature",97.6,"F"
"STUDY1","STUDY1-701-1239","TEMP","Temperature",98.9,"F"
"STUDY1","STUDY1-701-1239","TEMP","Temperature",98.3,"F"
"STUDY1","STUDY1-701-1239","TEMP","Temperature",98.2,"F"
"STUDY1","STUDY1-701-1239","TEMP","Temperature",98,"F"
"STUDY1","STUDY1-701-1239","TEMP","Temperature",98,"F"
"STUDY1","STUDY1-701-1239","TEMP","Temperature",97,"F"
"STUDY1","STUDY1-701-1239","TEMP","Temperature",97.8,"F"
"STUDY1","STUDY1-701-1275","TEMP","Temperature",97.9,"F"
"STUDY1","STUDY1-701-1275","TEMP","Temperature",97.7,"F"
"STUDY1","STUDY1-701-1275","TEMP","Temperature",97.2,"F"
"STUDY1","STUDY1-701-1275","TEMP","Temperature",97.8,"F"
"STUDY1","STUDY1-701-1275","TEMP","Temperature",97.4,"F"
"STUDY1","STUDY1-701-1275","TEMP","Temperature",97.5,"F"
"STUDY1","STUDY1-701-1275","TEMP","Temperature",98.1,"F"
"STUDY1","STUDY1-701-1275","TEMP","Temperature",97.5,"F"
"STUDY1","STUDY1-701-1275","TEMP","Temperature",97.6,"F"
"STUDY1","STUDY1-701-1275","TEMP","Temperature",97.7,"F"
"STUDY1","STUDY1-701-1275","TEMP","Temperature",98,"F"
"STUDY1","STUDY1-701-1287","TEMP","Temperature",98.2,"F"
"STUDY1","STUDY1-701-1287","TEMP","Temperature",97.9,"F"
"STUDY1","STUDY1-701-1287","TEMP","Temperature",98.8,"F"
"STUDY1","STUDY1-701-1287","TEMP","Temperature",97.9,"F"
"STUDY1","STUDY1-701-1287","TEMP","Temperature",97.9,"F"
"STUDY1","STUDY1-701-1287","TEMP","Temperature",98.4,"F"
"STUDY1","STUDY1-701-1287","TEMP","Temperature",97.7,"F"
"STUDY1","STUDY1-701-1287","TEMP","Temperature",99.1,"F"
"STUDY1","STUDY1-701-1287","TEMP","Temperature",98.5,"F"
"STUDY1","STUDY1-701-1287","TEMP","Temperature",97.4,"F"
"STUDY1","STUDY1-701-1287","TEMP","Temperature",98.2,"F"
"STUDY1","STUDY1-701-1287","TEMP","Temperature",97.6,"F"
"STUDY1","STUDY1-701-1287","TEMP","Temperature",98.3,"F"
"STUDY1","STUDY1-701-1294","TEMP","Temperature",98,"F"
"STUDY1","STUDY1-701-1294","TEMP","Temperature",98,"F"
"STUDY1","STUDY1-701-1294","TEMP","Temperature",97.5,"F"
"STUDY1","STUDY1-701-1294","TEMP","Temperature",98.1,"F"
"STUDY1","STUDY1-701-1294","TEMP","Temperature",96.6,"F"
"STUDY1","STUDY1-701-1294","TEMP","Temperature",97.7,"F"
"STUDY1","STUDY1-701-1294","TEMP","Temperature",97.8,"F"
"STUDY1","STUDY1-701-1294","TEMP","Temperature",97.3,"F"
"STUDY1","STUDY1-701-1294","TEMP","Temperature",97.1,"F"
"STUDY1","STUDY1-701-1294","TEMP","Temperature",97.7,"F"
"STUDY1","STUDY1-701-1294","TEMP","Temperature",97.3,"F"
"STUDY1","STUDY1-701-1302","TEMP","Temperature",97.7,"F"
"STUDY1","STUDY1-701-1302","TEMP","Temperature",98.9,"F"
"STUDY1","STUDY1-701-1302","TEMP","Temperature",96.3,"F"
"STUDY1","STUDY1-701-1302","TEMP","Temperature",97.8,"F"
"STUDY1","STUDY1-701-1302","TEMP","Temperature",98.3,"F"
"STUDY1","STUDY1-701-1302","TEMP","Temperature",97.1,"F"
"STUDY1","STUDY1-701-1302","TEMP","Temperature",96.5,"F"
"STUDY1","STUDY1-701-1302","TEMP","Temperature",97.9,"F"
"STUDY1","STUDY1-701-1302","TEMP","Temperature",98.1,"F"
"STUDY1","STUDY1-701-1302","TEMP","Temperature",97.9,"F"
"STUDY1","STUDY1-701-1302","TEMP","Temperature",97.4,"F"
"STUDY1","STUDY1-701-1317","TEMP","Temperature",97.7,"F"
"STUDY1","STUDY1-701-1317","TEMP","Temperature",98.7,"F"
"STUDY1","STUDY1-701-1317","TEMP","Temperature",98.9,"F"
"STUDY1","STUDY1-701-1317","TEMP","Temperature",98.5,"F"
"STUDY1","STUDY1-701-1317","TEMP","Temperature",97.9,"F"
"STUDY1","STUDY1-701-1317","TEMP","Temperature",97.7,"F"
"STUDY1","STUDY1-701-1317","TEMP","Temperature",97.3,"F"
"STUDY1","STUDY1-701-1317","TEMP","Temperature",98.2,"F"
"STUDY1","STUDY1-701-1317","TEMP","Temperature",97.6,"F"
"STUDY1","STUDY1-701-1317","TEMP","Temperature",98.2,"F"
"STUDY1","STUDY1-701-1317","TEMP","Temperature",97.7,"F"
"STUDY1","STUDY1-701-1317","TEMP","Temperature",98.8,"F"
"STUDY1","STUDY1-701-1317","TEMP","Temperature",98.5,"F"
"STUDY1","STUDY1-701-1317","TEMP","Temperature",97.7,"F"
"STUDY1","STUDY1-701-1324","TEMP","Temperature",98,"F"
"STUDY1","STUDY1-701-1324","TEMP","Temperature",97.3,"F"
"STUDY1","STUDY1-701-1324","TEMP","Temperature",97.5,"F"
"STUDY1","STUDY1-701-1324","TEMP","Temperature",97.2,"F"
"STUDY1","STUDY1-701-1324","TEMP","Temperature",98.5,"F"
"STUDY1","STUDY1-701-1324","TEMP","Temperature",97.2,"F"
"STUDY1","STUDY1-701-1324","TEMP","Temperature",97.9,"F"
"STUDY1","STUDY1-701-1324","TEMP","Temperature",98.1,"F"
"STUDY1","STUDY1-701-1324","TEMP","Temperature",97.2,"F"
"STUDY1","STUDY1-701-1324","TEMP","Temperature",97.8,"F"
"STUDY1","STUDY1-701-1324","TEMP","Temperature",97.3,"F"
"STUDY1","STUDY1-701-1324","TEMP","Temperature",97.9,"F"
"STUDY1","STUDY1-701-1324","TEMP","Temperature",98,"F"
"STUDY1","STUDY1-701-1324","TEMP","Temperature",98,"F"
"STUDY1","STUDY1-701-1341","TEMP","Temperature",99,"F"
"STUDY1","STUDY1-701-1341","TEMP","Temperature",98.6,"F"
"STUDY1","STUDY1-701-1341","TEMP","Temperature",99.2,"F"
"STUDY1","STUDY1-701-1341","TEMP","Temperature",98.6,"F"
"STUDY1","STUDY1-701-1341","TEMP","Temperature",97.9,"F"
"STUDY1","STUDY1-701-1341","TEMP","Temperature",98.4,"F"
"STUDY1","STUDY1-701-1345","TEMP","Temperature",98.5,"F"
"STUDY1","STUDY1-701-1345","TEMP","Temperature",98,"F"
"STUDY1","STUDY1-701-1345","TEMP","Temperature",97.6,"F"
"STUDY1","STUDY1-701-1345","TEMP","Temperature",98.9,"F"
"STUDY1","STUDY1-701-1345","TEMP","Temperature",98.8,"F"
"STUDY1","STUDY1-701-1345","TEMP","Temperature",98.9,"F"
"STUDY1","STUDY1-701-1345","TEMP","Temperature",98.1,"F"
"STUDY1","STUDY1-701-1345","TEMP","Temperature",97.2,"F"
"STUDY1","STUDY1-701-1345","TEMP","Temperature",98.9,"F"
"STUDY1","STUDY1-701-1345","TEMP","Temperature",98.4,"F"
"STUDY1","STUDY1-701-1345","TEMP","Temperature",97.7,"F"
"STUDY1","STUDY1-701-1345","TEMP","Temperature",98.2,"F"
"STUDY1","STUDY1-701-1345","TEMP","Temperature",97.8,"F"
"STUDY1","STUDY1-701-1360","TEMP","Temperature",96.3,"F"
"STUDY1","STUDY1-701-1360","TEMP","Temperature",96.7,"F"
"STUDY1","STUDY1-701-1360","TEMP","Temperature",97.7,"F"
"STUDY1","STUDY1-701-1360","TEMP","Temperature",97.1,"F"
"STUDY1","STUDY1-701-1360","TEMP","Temperature",97.7,"F"
"STUDY1","STUDY1-701-1363","TEMP","Temperature",99.3,"F"
"STUDY1","STUDY1-701-1363","TEMP","Temperature",98.9,"F"
"STUDY1","STUDY1-701-1363","TEMP","Temperature",98.3,"F"
"STUDY1","STUDY1-701-1363","TEMP","Temperature",98,"F"
"STUDY1","STUDY1-701-1363","TEMP","Temperature",99.5,"F"
"STUDY1","STUDY1-701-1363","TEMP","Temperature",98.8,"F"
"STUDY1","STUDY1-701-1363","TEMP","Temperature",98.2,"F"
"STUDY1","STUDY1-701-1363","TEMP","Temperature",99.5,"F"
"STUDY1","STUDY1-701-1363","TEMP","Temperature",97.7,"F"
"STUDY1","STUDY1-701-1363","TEMP","Temperature",98.5,"F"
"STUDY1","STUDY1-701-1363","TEMP","Temperature",98.8,"F"
"STUDY1","STUDY1-701-1363","TEMP","Temperature",98.1,"F"
"STUDY1","STUDY1-701-1363","TEMP","Temperature",97.9,"F"
"STUDY1","STUDY1-701-1363","TEMP","Temperature",98.8,"F"
"STUDY1","STUDY1-701-1383","TEMP","Temperature",97.3,"F"
"STUDY1","STUDY1-701-1383","TEMP","Temperature",98.2,"F"
"STUDY1","STUDY1-701-1383","TEMP","Temperature",97.7,"F"
"STUDY1","STUDY1-701-1383","TEMP","Temperature",98,"F"
"STUDY1","STUDY1-701-1383","TEMP","Temperature",98.2,"F"
"STUDY1","STUDY1-701-1383","TEMP","Temperature",98,"F"
"STUDY1","STUDY1-701-1383","TEMP","Temperature",97.6,"F"
"STUDY1","STUDY1-701-1383","TEMP","Temperature",98.2,"F"
"STUDY1","STUDY1-701-1383","TEMP","Temperature",97.5,"F"
"STUDY1","STUDY1-701-1383","TEMP","Temperature",98.5,"F"
"STUDY1","STUDY1-701-1383","TEMP","Temperature",97.5,"F"
"STUDY1","STUDY1-701-1383","TEMP","Temperature",98,"F"
"STUDY1","STUDY1-701-1383","TEMP","Temperature",97.6,"F"
"STUDY1","STUDY1-701-1383","TEMP","Temperature",97.5,"F"
"STUDY1","STUDY1-701-1387","TEMP","Temperature",96.7,"F"
"STUDY1","STUDY1-701-1387","TEMP","Temperature",98,"F"
"STUDY1","STUDY1-701-1387","TEMP","Temperature",97.9,"F"
"STUDY1","STUDY1-701-1387","TEMP","Temperature",97.5,"F"
"STUDY1","STUDY1-701-1387","TEMP","Temperature",97.5,"F"
"STUDY1","STUDY1-701-1392","TEMP","Temperature",97.8,"F"
"STUDY1","STUDY1-701-1392","TEMP","Temperature",98.7,"F"
"STUDY1","STUDY1-701-1392","TEMP","Temperature",97.7,"F"
"STUDY1","STUDY1-701-1392","TEMP","Temperature",97.5,"F"
"STUDY1","STUDY1-701-1392","TEMP","Temperature",98.2,"F"
"STUDY1","STUDY1-701-1392","TEMP","Temperature",98,"F"
"STUDY1","STUDY1-701-1392","TEMP","Temperature",97.9,"F"
"STUDY1","STUDY1-701-1392","TEMP","Temperature",98.6,"F"
"STUDY1","STUDY1-701-1392","TEMP","Temperature",97.9,"F"
"STUDY1","STUDY1-701-1392","TEMP","Temperature",98.7,"F"
"STUDY1","STUDY1-701-1392","TEMP","Temperature",97.6,"F"
"STUDY1","STUDY1-701-1392","TEMP","Temperature",99,"F"
"STUDY1","STUDY1-701-1392","TEMP","Temperature",97.9,"F"
"STUDY1","STUDY1-701-1392","TEMP","Temperature",99,"F"
"STUDY1","STUDY1-701-1415","TEMP","Temperature",97.3,"F"
"STUDY1","STUDY1-701-1415","TEMP","Temperature",97.7,"F"
"STUDY1","STUDY1-701-1415","TEMP","Temperature",98,"F"
"STUDY1","STUDY1-701-1415","TEMP","Temperature",97.8,"F"
"STUDY1","STUDY1-701-1415","TEMP","Temperature",97.7,"F"
"STUDY1","STUDY1-701-1415","TEMP","Temperature",99.6,"F"
"STUDY1","STUDY1-701-1415","TEMP","Temperature",97.5,"F"
"STUDY1","STUDY1-701-1415","TEMP","Temperature",98.4,"F"
"STUDY1","STUDY1-701-1415","TEMP","Temperature",96.6,"F"
"STUDY1","STUDY1-701-1415","TEMP","Temperature",97.7,"F"
"STUDY1","STUDY1-701-1415","TEMP","Temperature",98.2,"F"
"STUDY1","STUDY1-701-1415","TEMP","Temperature",96.7,"F"
"STUDY1","STUDY1-701-1415","TEMP","Temperature",97.3,"F"
"STUDY1","STUDY1-701-1415","TEMP","Temperature",97.7,"F"
"STUDY1","STUDY1-701-1429","TEMP","Temperature",96.8,"F"
"STUDY1","STUDY1-701-1429","TEMP","Temperature",98.6,"F"
"STUDY1","STUDY1-701-1429","TEMP","Temperature",98.5,"F"
"STUDY1","STUDY1-701-1429","TEMP","Temperature",98.5,"F"
"STUDY1","STUDY1-701-1429","TEMP","Temperature",97.6,"F"
"STUDY1","STUDY1-701-1429","TEMP","Temperature",98.2,"F"
"STUDY1","STUDY1-701-1440","TEMP","Temperature",97.7,"F"
"STUDY1","STUDY1-701-1440","TEMP","Temperature",97.6,"F"
"STUDY1","STUDY1-701-1440","TEMP","Temperature",97.1,"F"
"STUDY1","STUDY1-701-1440","TEMP","Temperature",96.6,"F"
"STUDY1","STUDY1-701-1440","TEMP","Temperature",95.8,"F"
"STUDY1","STUDY1-701-1440","TEMP","Temperature",98.2,"F"
"STUDY1","STUDY1-701-1440","TEMP","Temperature",97.7,"F"
"STUDY1","STUDY1-701-1440","TEMP","Temperature",97.7,"F"
"STUDY1","STUDY1-701-1440","TEMP","Temperature",97.3,"F"
"STUDY1","STUDY1-701-1440","TEMP","Temperature",98.7,"F"
"STUDY1","STUDY1-701-1440","TEMP","Temperature",98,"F"
"STUDY1","STUDY1-701-1440","TEMP","Temperature",98.5,"F"
"STUDY1","STUDY1-701-1440","TEMP","Temperature",98.7,"F"
"STUDY1","STUDY1-701-1440","TEMP","Temperature",98.6,"F"
"STUDY1","STUDY1-701-1442","TEMP","Temperature",96.8,"F"
"STUDY1","STUDY1-701-1442","TEMP","Temperature",97.6,"F"
"STUDY1","STUDY1-701-1442","TEMP","Temperature",98,"F"
"STUDY1","STUDY1-701-1442","TEMP","Temperature",97.6,"F"
"STUDY1","STUDY1-701-1442","TEMP","Temperature",97.7,"F"
"STUDY1","STUDY1-701-1442","TEMP","Temperature",98,"F"
"STUDY1","STUDY1-701-1442","TEMP","Temperature",97.9,"F"
"STUDY1","STUDY1-701-1442","TEMP","Temperature",98.4,"F"
"STUDY1","STUDY1-701-1442","TEMP","Temperature",97.5,"F"
"STUDY1","STUDY1-701-1442","TEMP","Temperature",97.7,"F"
"STUDY1","STUDY1-701-1442","TEMP","Temperature",97.5,"F"
"STUDY1","STUDY1-701-1442","TEMP","Temperature",99.4,"F"
"STUDY1","STUDY1-701-1442","TEMP","Temperature",97.5,"F"
"STUDY1","STUDY1-701-1442","TEMP","Temperature",98.5,"F"
"STUDY1","STUDY1-701-1444","TEMP","Temperature",97.9,"F"
"STUDY1","STUDY1-701-1444","TEMP","Temperature",98.8,"F"
"STUDY1","STUDY1-701-1444","TEMP","Temperature",98.5,"F"
"STUDY1","STUDY1-701-1444","TEMP","Temperature",98.5,"F"
"STUDY1","STUDY1-701-1444","TEMP","Temperature",98.4,"F"
"STUDY1","STUDY1-701-1444","TEMP","Temperature",98.1,"F"
"STUDY1","STUDY1-701-1444","TEMP","Temperature",98.6,"F"
"STUDY1","STUDY1-701-1444","TEMP","Temperature",98.1,"F"
"STUDY1","STUDY1-701-1444","TEMP","Temperature",97.2,"F"
"STUDY1","STUDY1-702-1082","TEMP","Temperature",97.6,"F"
"STUDY1","STUDY1-702-1082","TEMP","Temperature",97.8,"F"
"STUDY1","STUDY1-702-1082","TEMP","Temperature",96.8,"F"
"STUDY1","STUDY1-702-1082","TEMP","Temperature",97.2,"F"
"STUDY1","STUDY1-702-1082","TEMP","Temperature",96.8,"F"
"STUDY1","STUDY1-702-1082","TEMP","Temperature",97.6,"F"
"STUDY1","STUDY1-702-1082","TEMP","Temperature",98,"F"
"STUDY1","STUDY1-702-1082","TEMP","Temperature",97.2,"F"
"STUDY1","STUDY1-702-1082","TEMP","Temperature",97,"F"
"STUDY1","STUDY1-703-1042","TEMP","Temperature",98.8,"F"
"STUDY1","STUDY1-703-1042","TEMP","Temperature",98.8,"F"
"STUDY1","STUDY1-703-1042","TEMP","Temperature",98.8,"F"
"STUDY1","STUDY1-703-1042","TEMP","Temperature",98.4,"F"
"STUDY1","STUDY1-703-1042","TEMP","Temperature",98.6,"F"
"STUDY1","STUDY1-703-1042","TEMP","Temperature",96.8,"F"
"STUDY1","STUDY1-703-1042","TEMP","Temperature",98,"F"
"STUDY1","STUDY1-703-1042","TEMP","Temperature",98.6,"F"
"STUDY1","STUDY1-703-1042","TEMP","Temperature",98.6,"F"
"STUDY1","STUDY1-703-1042","TEMP","Temperature",98.6,"F"
"STUDY1","STUDY1-703-1042","TEMP","Temperature",98.7,"F"
"STUDY1","STUDY1-703-1042","TEMP","Temperature",99.4,"F"
"STUDY1","STUDY1-703-1042","TEMP","Temperature",99,"F"
"STUDY1","STUDY1-703-1042","TEMP","Temperature",99.6,"F"
"STUDY1","STUDY1-703-1076","TEMP","Temperature",98.8,"F"
"STUDY1","STUDY1-703-1076","TEMP","Temperature",98.8,"F"
"STUDY1","STUDY1-703-1076","TEMP","Temperature",98.8,"F"
"STUDY1","STUDY1-703-1076","TEMP","Temperature",98.4,"F"
"STUDY1","STUDY1-703-1076","TEMP","Temperature",98.4,"F"
"STUDY1","STUDY1-703-1076","TEMP","Temperature",98.4,"F"
"STUDY1","STUDY1-703-1076","TEMP","Temperature",98.4,"F"
"STUDY1","STUDY1-703-1076","TEMP","Temperature",97.4,"F"
"STUDY1","STUDY1-703-1076","TEMP","Temperature",98,"F"
"STUDY1","STUDY1-703-1076","TEMP","Temperature",98.4,"F"
"STUDY1","STUDY1-703-1086","TEMP","Temperature",97.8,"F"
"STUDY1","STUDY1-703-1086","TEMP","Temperature",97.8,"F"
"STUDY1","STUDY1-703-1086","TEMP","Temperature",97.6,"F"
"STUDY1","STUDY1-703-1086","TEMP","Temperature",98.4,"F"
"STUDY1","STUDY1-703-1086","TEMP","Temperature",97.6,"F"
"STUDY1","STUDY1-703-1086","TEMP","Temperature",98.4,"F"
"STUDY1","STUDY1-703-1086","TEMP","Temperature",98.8,"F"
"STUDY1","STUDY1-703-1086","TEMP","Temperature",97.8,"F"
"STUDY1","STUDY1-703-1086","TEMP","Temperature",97.8,"F"
"STUDY1","STUDY1-703-1086","TEMP","Temperature",97.6,"F"
"STUDY1","STUDY1-703-1086","TEMP","Temperature",98.2,"F"
"STUDY1","STUDY1-703-1086","TEMP","Temperature",98.6,"F"
"STUDY1","STUDY1-703-1096","TEMP","Temperature",98,"F"
"STUDY1","STUDY1-703-1096","TEMP","Temperature",97.8,"F"
"STUDY1","STUDY1-703-1096","TEMP","Temperature",98,"F"
"STUDY1","STUDY1-703-1096","TEMP","Temperature",97.6,"F"
"STUDY1","STUDY1-703-1096","TEMP","Temperature",98,"F"
"STUDY1","STUDY1-703-1096","TEMP","Temperature",97.8,"F"
"STUDY1","STUDY1-703-1096","TEMP","Temperature",98.2,"F"
"STUDY1","STUDY1-703-1100","TEMP","Temperature",97.6,"F"
"STUDY1","STUDY1-703-1100","TEMP","Temperature",98.4,"F"
"STUDY1","STUDY1-703-1100","TEMP","Temperature",98,"F"
"STUDY1","STUDY1-703-1100","TEMP","Temperature",98.2,"F"
"STUDY1","STUDY1-703-1100","TEMP","Temperature",98.6,"F"
"STUDY1","STUDY1-703-1100","TEMP","Temperature",97.8,"F"
"STUDY1","STUDY1-703-1100","TEMP","Temperature",97.2,"F"
"STUDY1","STUDY1-703-1100","TEMP","Temperature",97.8,"F"
"STUDY1","STUDY1-703-1100","TEMP","Temperature",98.4,"F"
"STUDY1","STUDY1-703-1100","TEMP","Temperature",98.6,"F"
"STUDY1","STUDY1-703-1100","TEMP","Temperature",98.6,"F"
"STUDY1","STUDY1-703-1100","TEMP","Temperature",98.6,"F"
"STUDY1","STUDY1-703-1100","TEMP","Temperature",98.6,"F"
"STUDY1","STUDY1-703-1100","TEMP","Temperature",98.4,"F"
"STUDY1","STUDY1-703-1119","TEMP","Temperature",96.8,"F"
"STUDY1","STUDY1-703-1119","TEMP","Temperature",97.8,"F"
"STUDY1","STUDY1-703-1119","TEMP","Temperature",97.2,"F"
"STUDY1","STUDY1-703-1119","TEMP","Temperature",98,"F"
"STUDY1","STUDY1-703-1119","TEMP","Temperature",98.6,"F"
"STUDY1","STUDY1-703-1119","TEMP","Temperature",98.8,"F"
"STUDY1","STUDY1-703-1119","TEMP","Temperature",98.6,"F"
"STUDY1","STUDY1-703-1119","TEMP","Temperature",98.4,"F"
"STUDY1","STUDY1-703-1119","TEMP","Temperature",98.6,"F"
"STUDY1","STUDY1-703-1119","TEMP","Temperature",98.2,"F"
"STUDY1","STUDY1-703-1119","TEMP","Temperature",98.6,"F"
"STUDY1","STUDY1-703-1119","TEMP","Temperature",98.6,"F"
"STUDY1","STUDY1-703-1175","TEMP","Temperature",98.2,"F"
"STUDY1","STUDY1-703-1175","TEMP","Temperature",97.8,"F"
"STUDY1","STUDY1-703-1175","TEMP","Temperature",97.8,"F"
"STUDY1","STUDY1-703-1175","TEMP","Temperature",97.8,"F"
"STUDY1","STUDY1-703-1182","TEMP","Temperature",96.6,"F"
"STUDY1","STUDY1-703-1182","TEMP","Temperature",98.8,"F"
"STUDY1","STUDY1-703-1182","TEMP","Temperature",98.8,"F"
"STUDY1","STUDY1-703-1182","TEMP","Temperature",98,"F"
"STUDY1","STUDY1-703-1182","TEMP","Temperature",98.4,"F"
"STUDY1","STUDY1-703-1182","TEMP","Temperature",98,"F"
"STUDY1","STUDY1-703-1182","TEMP","Temperature",96.8,"F"
"STUDY1","STUDY1-703-1182","TEMP","Temperature",98,"F"
"STUDY1","STUDY1-703-1197","TEMP","Temperature",98.8,"F"
"STUDY1","STUDY1-703-1197","TEMP","Temperature",98.8,"F"
"STUDY1","STUDY1-703-1197","TEMP","Temperature",98.2,"F"
"STUDY1","STUDY1-703-1197","TEMP","Temperature",97.6,"F"
"STUDY1","STUDY1-703-1210","TEMP","Temperature",97.2,"F"
"STUDY1","STUDY1-703-1210","TEMP","Temperature",98.6,"F"
"STUDY1","STUDY1-703-1210","TEMP","Temperature",96.6,"F"
"STUDY1","STUDY1-703-1210","TEMP","Temperature",98.2,"F"
"STUDY1","STUDY1-703-1210","TEMP","Temperature",98.2,"F"
"STUDY1","STUDY1-703-1210","TEMP","Temperature",96.8,"F"
"STUDY1","STUDY1-703-1210","TEMP","Temperature",96.4,"F"
"STUDY1","STUDY1-703-1210","TEMP","Temperature",98.4,"F"
"STUDY1","STUDY1-703-1210","TEMP","Temperature",97.8,"F"
"STUDY1","STUDY1-703-1210","TEMP","Temperature",98.8,"F"
"STUDY1","STUDY1-703-1210","TEMP","Temperature",99,"F"
"STUDY1","STUDY1-703-1210","TEMP","Temperature",98.4,"F"
"STUDY1","STUDY1-703-1210","TEMP","Temperature",98.8,"F"
"STUDY1","STUDY1-703-1210","TEMP","Temperature",98,"F"
"STUDY1","STUDY1-703-1258","TEMP","Temperature",97.2,"F"
"STUDY1","STUDY1-703-1258","TEMP","Temperature",97.6,"F"
"STUDY1","STUDY1-703-1258","TEMP","Temperature",98.2,"F"
"STUDY1","STUDY1-703-1258","TEMP","Temperature",98.2,"F"
"STUDY1","STUDY1-703-1258","TEMP","Temperature",97.8,"F"
"STUDY1","STUDY1-703-1258","TEMP","Temperature",97.8,"F"
"STUDY1","STUDY1-703-1258","TEMP","Temperature",98.2,"F"
"STUDY1","STUDY1-703-1258","TEMP","Temperature",98,"F"
"STUDY1","STUDY1-703-1258","TEMP","Temperature",97.4,"F"
"STUDY1","STUDY1-703-1258","TEMP","Temperature",97.8,"F"
"STUDY1","STUDY1-703-1258","TEMP","Temperature",98.2,"F"
"STUDY1","STUDY1-703-1258","TEMP","Temperature",98.8,"F"
"STUDY1","STUDY1-703-1258","TEMP","Temperature",98.8,"F"
"STUDY1","STUDY1-703-1258","TEMP","Temperature",98.6,"F"
"STUDY1","STUDY1-703-1279","TEMP","Temperature",97.4,"F"
"STUDY1","STUDY1-703-1279","TEMP","Temperature",96.8,"F"
"STUDY1","STUDY1-703-1279","TEMP","Temperature",97.8,"F"
"STUDY1","STUDY1-703-1279","TEMP","Temperature",97.4,"F"
"STUDY1","STUDY1-703-1295","TEMP","Temperature",98.4,"F"
"STUDY1","STUDY1-703-1295","TEMP","Temperature",99,"F"
"STUDY1","STUDY1-703-1295","TEMP","Temperature",98,"F"
"STUDY1","STUDY1-703-1295","TEMP","Temperature",98,"F"
"STUDY1","STUDY1-703-1295","TEMP","Temperature",98.8,"F"
"STUDY1","STUDY1-703-1295","TEMP","Temperature",99,"F"
"STUDY1","STUDY1-703-1295","TEMP","Temperature",97.8,"F"
"STUDY1","STUDY1-703-1295","TEMP","Temperature",98.6,"F"
"STUDY1","STUDY1-703-1295","TEMP","Temperature",98.2,"F"
"STUDY1","STUDY1-703-1295","TEMP","Temperature",98.8,"F"
"STUDY1","STUDY1-703-1295","TEMP","Temperature",98.8,"F"
"STUDY1","STUDY1-703-1295","TEMP","Temperature",98.8,"F"
"STUDY1","STUDY1-703-1299","TEMP","Temperature",99,"F"
"STUDY1","STUDY1-703-1299","TEMP","Temperature",98,"F"
"STUDY1","STUDY1-703-1299","TEMP","Temperature",98.6,"F"
"STUDY1","STUDY1-703-1299","TEMP","Temperature",98,"F"
"STUDY1","STUDY1-703-1299","TEMP","Temperature",97.6,"F"
"STUDY1","STUDY1-703-1299","TEMP","Temperature",97.4,"F"
"STUDY1","STUDY1-703-1299","TEMP","Temperature",97.4,"F"
"STUDY1","STUDY1-703-1299","TEMP","Temperature",97.8,"F"
"STUDY1","STUDY1-703-1299","TEMP","Temperature",97.6,"F"
"STUDY1","STUDY1-703-1299","TEMP","Temperature",98.6,"F"
"STUDY1","STUDY1-703-1299","TEMP","Temperature",98.4,"F"
"STUDY1","STUDY1-703-1299","TEMP","Temperature",98.6,"F"
"STUDY1","STUDY1-703-1299","TEMP","Temperature",97.8,"F"
"STUDY1","STUDY1-703-1299","TEMP","Temperature",99.8,"F"
"STUDY1","STUDY1-703-1335","TEMP","Temperature",97.6,"F"
"STUDY1","STUDY1-703-1335","TEMP","Temperature",98.6,"F"
"STUDY1","STUDY1-703-1335","TEMP","Temperature",98.6,"F"
"STUDY1","STUDY1-703-1335","TEMP","Temperature",98.2,"F"
"STUDY1","STUDY1-703-1335","TEMP","Temperature",98,"F"
"STUDY1","STUDY1-703-1335","TEMP","Temperature",96.8,"F"
"STUDY1","STUDY1-703-1335","TEMP","Temperature",98.8,"F"
"STUDY1","STUDY1-703-1335","TEMP","Temperature",96.8,"F"
"STUDY1","STUDY1-703-1379","TEMP","Temperature",97.8,"F"
"STUDY1","STUDY1-703-1379","TEMP","Temperature",97.8,"F"
"STUDY1","STUDY1-703-1379","TEMP","Temperature",97.8,"F"
"STUDY1","STUDY1-703-1379","TEMP","Temperature",96.8,"F"
"STUDY1","STUDY1-703-1379","TEMP","Temperature",97.8,"F"
"STUDY1","STUDY1-703-1379","TEMP","Temperature",98.2,"F"
"STUDY1","STUDY1-703-1379","TEMP","Temperature",98.2,"F"
"STUDY1","STUDY1-703-1379","TEMP","Temperature",96.8,"F"
"STUDY1","STUDY1-703-1379","TEMP","Temperature",98,"F"
"STUDY1","STUDY1-703-1379","TEMP","Temperature",97.8,"F"
"STUDY1","STUDY1-703-1379","TEMP","Temperature",97.8,"F"
"STUDY1","STUDY1-703-1379","TEMP","Temperature",99.6,"F"
"STUDY1","STUDY1-703-1379","TEMP","Temperature",98.8,"F"
"STUDY1","STUDY1-703-1379","TEMP","Temperature",98.6,"F"
"STUDY1","STUDY1-703-1403","TEMP","Temperature",98.4,"F"
"STUDY1","STUDY1-703-1403","TEMP","Temperature",96.4,"F"
"STUDY1","STUDY1-703-1403","TEMP","Temperature",97.2,"F"
"STUDY1","STUDY1-703-1403","TEMP","Temperature",98.2,"F"
"STUDY1","STUDY1-703-1439","TEMP","Temperature",98.4,"F"
"STUDY1","STUDY1-703-1439","TEMP","Temperature",98.2,"F"
"STUDY1","STUDY1-703-1439","TEMP","Temperature",99.4,"F"
"STUDY1","STUDY1-703-1439","TEMP","Temperature",98,"F"
"STUDY1","STUDY1-703-1439","TEMP","Temperature",98.6,"F"
"STUDY1","STUDY1-703-1439","TEMP","Temperature",99.2,"F"
"STUDY1","STUDY1-703-1439","TEMP","Temperature",98.8,"F"
"STUDY1","STUDY1-703-1439","TEMP","Temperature",98.6,"F"
"STUDY1","STUDY1-703-1439","TEMP","Temperature",99.2,"F"
"STUDY1","STUDY1-703-1439","TEMP","Temperature",99,"F"
"STUDY1","STUDY1-703-1439","TEMP","Temperature",98.8,"F"
"STUDY1","STUDY1-703-1439","TEMP","Temperature",98.6,"F"
"STUDY1","STUDY1-703-1439","TEMP","Temperature",98.6,"F"
"STUDY1","STUDY1-703-1439","TEMP","Temperature",98.6,"F"
"STUDY1","STUDY1-704-1008","TEMP","Temperature",98.2,"F"
"STUDY1","STUDY1-704-1008","TEMP","Temperature",98.3,"F"
"STUDY1","STUDY1-704-1008","TEMP","Temperature",98.2,"F"
"STUDY1","STUDY1-704-1008","TEMP","Temperature",98.8,"F"
"STUDY1","STUDY1-704-1008","TEMP","Temperature",98,"F"
"STUDY1","STUDY1-704-1008","TEMP","Temperature",98,"F"
"STUDY1","STUDY1-704-1008","TEMP","Temperature",98.5,"F"
"STUDY1","STUDY1-704-1008","TEMP","Temperature",98.4,"F"
"STUDY1","STUDY1-704-1009","TEMP","Temperature",97.8,"F"
"STUDY1","STUDY1-704-1009","TEMP","Temperature",97.6,"F"
"STUDY1","STUDY1-704-1009","TEMP","Temperature",97.6,"F"
"STUDY1","STUDY1-704-1009","TEMP","Temperature",97.8,"F"
"STUDY1","STUDY1-704-1009","TEMP","Temperature",98,"F"
"STUDY1","STUDY1-704-1010","TEMP","Temperature",97.6,"F"
"STUDY1","STUDY1-704-1010","TEMP","Temperature",97.8,"F"
"STUDY1","STUDY1-704-1010","TEMP","Temperature",98,"F"
"STUDY1","STUDY1-704-1010","TEMP","Temperature",98.4,"F"
"STUDY1","STUDY1-704-1010","TEMP","Temperature",98.2,"F"
"STUDY1","STUDY1-704-1010","TEMP","Temperature",98,"F"
"STUDY1","STUDY1-704-1010","TEMP","Temperature",98.4,"F"
"STUDY1","STUDY1-704-1010","TEMP","Temperature",98,"F"
"STUDY1","STUDY1-704-1010","TEMP","Temperature",98.2,"F"
"STUDY1","STUDY1-704-1010","TEMP","Temperature",98.4,"F"
"STUDY1","STUDY1-704-1010","TEMP","Temperature",98.5,"F"
"STUDY1","STUDY1-704-1017","TEMP","Temperature",97.8,"F"
"STUDY1","STUDY1-704-1017","TEMP","Temperature",97.4,"F"
"STUDY1","STUDY1-704-1017","TEMP","Temperature",97.8,"F"
"STUDY1","STUDY1-704-1017","TEMP","Temperature",98.2,"F"
"STUDY1","STUDY1-704-1017","TEMP","Temperature",97.6,"F"
"STUDY1","STUDY1-704-1017","TEMP","Temperature",98,"F"
"STUDY1","STUDY1-704-1017","TEMP","Temperature",97.4,"F"
"STUDY1","STUDY1-704-1025","TEMP","Temperature",97.9,"F"
"STUDY1","STUDY1-704-1025","TEMP","Temperature",98.1,"F"
"STUDY1","STUDY1-704-1025","TEMP","Temperature",98.2,"F"
"STUDY1","STUDY1-704-1025","TEMP","Temperature",97.5,"F"
"STUDY1","STUDY1-704-1025","TEMP","Temperature",98,"F"
"STUDY1","STUDY1-704-1025","TEMP","Temperature",97.7,"F"
"STUDY1","STUDY1-704-1065","TEMP","Temperature",98.2,"F"
"STUDY1","STUDY1-704-1065","TEMP","Temperature",98,"F"
"STUDY1","STUDY1-704-1065","TEMP","Temperature",97.8,"F"
"STUDY1","STUDY1-704-1065","TEMP","Temperature",98.4,"F"
"STUDY1","STUDY1-704-1065","TEMP","Temperature",96.9,"F"
"STUDY1","STUDY1-704-1065","TEMP","Temperature",97.4,"F"
"STUDY1","STUDY1-704-1065","TEMP","Temperature",97.8,"F"
"STUDY1","STUDY1-704-1065","TEMP","Temperature",98,"F"
"STUDY1","STUDY1-704-1065","TEMP","Temperature",98.4,"F"
"STUDY1","STUDY1-704-1074","TEMP","Temperature",97.6,"F"
"STUDY1","STUDY1-704-1074","TEMP","Temperature",98.6,"F"
"STUDY1","STUDY1-704-1074","TEMP","Temperature",97.4,"F"
"STUDY1","STUDY1-704-1074","TEMP","Temperature",97,"F"
"STUDY1","STUDY1-704-1074","TEMP","Temperature",96.4,"F"
"STUDY1","STUDY1-704-1074","TEMP","Temperature",97.2,"F"
"STUDY1","STUDY1-704-1074","TEMP","Temperature",98.3,"F"
"STUDY1","STUDY1-704-1074","TEMP","Temperature",98,"F"
"STUDY1","STUDY1-704-1074","TEMP","Temperature",97.9,"F"
"STUDY1","STUDY1-704-1093","TEMP","Temperature",97.6,"F"
"STUDY1","STUDY1-704-1093","TEMP","Temperature",97.8,"F"
"STUDY1","STUDY1-704-1093","TEMP","Temperature",98.6,"F"
"STUDY1","STUDY1-704-1093","TEMP","Temperature",97.6,"F"
"STUDY1","STUDY1-704-1093","TEMP","Temperature",97.4,"F"
"STUDY1","STUDY1-704-1093","TEMP","Temperature",98,"F"
"STUDY1","STUDY1-704-1093","TEMP","Temperature",97.8,"F"
"STUDY1","STUDY1-704-1093","TEMP","Temperature",97.6,"F"
"STUDY1","STUDY1-704-1093","TEMP","Temperature",98,"F"
"STUDY1","STUDY1-704-1093","TEMP","Temperature",97.8,"F"
"STUDY1","STUDY1-704-1093","TEMP","Temperature",97.4,"F"
"STUDY1","STUDY1-704-1093","TEMP","Temperature",97.6,"F"
"STUDY1","STUDY1-704-1114","TEMP","Temperature",97.6,"F"
"STUDY1","STUDY1-704-1114","TEMP","Temperature",97.6,"F"
"STUDY1","STUDY1-704-1114","TEMP","Temperature",97.4,"F"
"STUDY1","STUDY1-704-1114","TEMP","Temperature",97.8,"F"
"STUDY1","STUDY1-704-1114","TEMP","Temperature",97.8,"F"
"STUDY1","STUDY1-704-1114","TEMP","Temperature",98.4,"F"
"STUDY1","STUDY1-704-1114","TEMP","Temperature",97.6,"F"
"STUDY1","STUDY1-704-1114","TEMP","Temperature",98,"F"
"STUDY1","STUDY1-704-1114","TEMP","Temperature",98.4,"F"
"STUDY1","STUDY1-704-1114","TEMP","Temperature",98.2,"F"
"STUDY1","STUDY1-704-1114","TEMP","Temperature",97.8,"F"
"STUDY1","STUDY1-704-1114","TEMP","Temperature",98.6,"F"
"STUDY1","STUDY1-704-1114","TEMP","Temperature",98.1,"F"
"STUDY1","STUDY1-704-1120","TEMP","Temperature",97.6,"F"
"STUDY1","STUDY1-704-1120","TEMP","Temperature",96.3,"F"
"STUDY1","STUDY1-704-1120","TEMP","Temperature",98.2,"F"
"STUDY1","STUDY1-704-1120","TEMP","Temperature",98.2,"F"
"STUDY1","STUDY1-704-1120","TEMP","Temperature",98.2,"F"
"STUDY1","STUDY1-704-1120","TEMP","Temperature",98.1,"F"
"STUDY1","STUDY1-704-1120","TEMP","Temperature",97.6,"F"
"STUDY1","STUDY1-704-1120","TEMP","Temperature",98.1,"F"
"STUDY1","STUDY1-704-1120","TEMP","Temperature",97.7,"F"
"STUDY1","STUDY1-704-1120","TEMP","Temperature",98.2,"F"
"STUDY1","STUDY1-704-1127","TEMP","Temperature",97.6,"F"
"STUDY1","STUDY1-704-1127","TEMP","Temperature",98.2,"F"
"STUDY1","STUDY1-704-1127","TEMP","Temperature",98.7,"F"
"STUDY1","STUDY1-704-1127","TEMP","Temperature",98.4,"F"
"STUDY1","STUDY1-704-1127","TEMP","Temperature",97.8,"F"
"STUDY1","STUDY1-704-1127","TEMP","Temperature",97.8,"F"
"STUDY1","STUDY1-704-1127","TEMP","Temperature",98,"F"
"STUDY1","STUDY1-704-1127","TEMP","Temperature",97.4,"F"
"STUDY1","STUDY1-704-1127","TEMP","Temperature",98.4,"F"
"STUDY1","STUDY1-704-1127","TEMP","Temperature",97.6,"F"
"STUDY1","STUDY1-704-1127","TEMP","Temperature",98,"F"
"STUDY1","STUDY1-704-1127","TEMP","Temperature",98.3,"F"
"STUDY1","STUDY1-704-1127","TEMP","Temperature",97.9,"F"
"STUDY1","STUDY1-704-1127","TEMP","Temperature",98.2,"F"
"STUDY1","STUDY1-704-1135","TEMP","Temperature",97.2,"F"
"STUDY1","STUDY1-704-1135","TEMP","Temperature",98.1,"F"
"STUDY1","STUDY1-704-1135","TEMP","Temperature",97.5,"F"
"STUDY1","STUDY1-704-1135","TEMP","Temperature",98.2,"F"
"STUDY1","STUDY1-704-1135","TEMP","Temperature",98,"F"
"STUDY1","STUDY1-704-1135","TEMP","Temperature",98.4,"F"
"STUDY1","STUDY1-704-1135","TEMP","Temperature",98,"F"
"STUDY1","STUDY1-704-1135","TEMP","Temperature",98.3,"F"
"STUDY1","STUDY1-704-1135","TEMP","Temperature",98.7,"F"
"STUDY1","STUDY1-704-1135","TEMP","Temperature",98.1,"F"
"STUDY1","STUDY1-704-1135","TEMP","Temperature",98,"F"
"STUDY1","STUDY1-704-1135","TEMP","Temperature",97,"F"
"STUDY1","STUDY1-704-1135","TEMP","Temperature",98,"F"
"STUDY1","STUDY1-704-1135","TEMP","Temperature",97.4,"F"
"STUDY1","STUDY1-704-1164","TEMP","Temperature",98.8,"F"
"STUDY1","STUDY1-704-1164","TEMP","Temperature",98.5,"F"
"STUDY1","STUDY1-704-1164","TEMP","Temperature",98.4,"F"
"STUDY1","STUDY1-704-1164","TEMP","Temperature",98,"F"
"STUDY1","STUDY1-704-1164","TEMP","Temperature",97.3,"F"
"STUDY1","STUDY1-704-1164","TEMP","Temperature",97.6,"F"
"STUDY1","STUDY1-704-1164","TEMP","Temperature",97.4,"F"
"STUDY1","STUDY1-704-1164","TEMP","Temperature",98,"F"
"STUDY1","STUDY1-704-1164","TEMP","Temperature",98.3,"F"
"STUDY1","STUDY1-704-1164","TEMP","Temperature",98.5,"F"
"STUDY1","STUDY1-704-1164","TEMP","Temperature",98.2,"F"
"STUDY1","STUDY1-704-1164","TEMP","Temperature",98,"F"
"STUDY1","STUDY1-704-1164","TEMP","Temperature",98,"F"
"STUDY1","STUDY1-704-1164","TEMP","Temperature",98,"F"
"STUDY1","STUDY1-704-1218","TEMP","Temperature",98.2,"F"
"STUDY1","STUDY1-704-1218","TEMP","Temperature",98.6,"F"
"STUDY1","STUDY1-704-1218","TEMP","Temperature",98.1,"F"
"STUDY1","STUDY1-704-1218","TEMP","Temperature",97.8,"F"
"STUDY1","STUDY1-704-1218","TEMP","Temperature",98,"F"
"STUDY1","STUDY1-704-1218","TEMP","Temperature",97.9,"F"
"STUDY1","STUDY1-704-1218","TEMP","Temperature",98.2,"F"
"STUDY1","STUDY1-704-1218","TEMP","Temperature",98,"F"
"STUDY1","STUDY1-704-1218","TEMP","Temperature",98.3,"F"
"STUDY1","STUDY1-704-1218","TEMP","Temperature",98,"F"
"STUDY1","STUDY1-704-1218","TEMP","Temperature",98,"F"
"STUDY1","STUDY1-704-1218","TEMP","Temperature",98,"F"
"STUDY1","STUDY1-704-1218","TEMP","Temperature",98.2,"F"
"STUDY1","STUDY1-704-1218","TEMP","Temperature",96,"F"
"STUDY1","STUDY1-704-1233","TEMP","Temperature",96.9,"F"
"STUDY1","STUDY1-704-1233","TEMP","Temperature",96,"F"
"STUDY1","STUDY1-704-1233","TEMP","Temperature",97.4,"F"
"STUDY1","STUDY1-704-1233","TEMP","Temperature",96.6,"F"
"STUDY1","STUDY1-704-1233","TEMP","Temperature",96.2,"F"
"STUDY1","STUDY1-704-1233","TEMP","Temperature",97,"F"
"STUDY1","STUDY1-704-1233","TEMP","Temperature",97.6,"F"
"STUDY1","STUDY1-704-1233","TEMP","Temperature",97.4,"F"
"STUDY1","STUDY1-704-1233","TEMP","Temperature",97.9,"F"
"STUDY1","STUDY1-704-1233","TEMP","Temperature",98,"F"
"STUDY1","STUDY1-704-1233","TEMP","Temperature",97.9,"F"
"STUDY1","STUDY1-704-1241","TEMP","Temperature",97.6,"F"
"STUDY1","STUDY1-704-1241","TEMP","Temperature",97.4,"F"
"STUDY1","STUDY1-704-1241","TEMP","Temperature",97.6,"F"
"STUDY1","STUDY1-704-1241","TEMP","Temperature",97.6,"F"
"STUDY1","STUDY1-704-1241","TEMP","Temperature",97.8,"F"
"STUDY1","STUDY1-704-1241","TEMP","Temperature",97.8,"F"
"STUDY1","STUDY1-704-1241","TEMP","Temperature",98.4,"F"
"STUDY1","STUDY1-704-1241","TEMP","Temperature",98,"F"
"STUDY1","STUDY1-704-1241","TEMP","Temperature",98.6,"F"
"STUDY1","STUDY1-704-1260","TEMP","Temperature",98.2,"F"
"STUDY1","STUDY1-704-1260","TEMP","Temperature",98,"F"
"STUDY1","STUDY1-704-1260","TEMP","Temperature",97.8,"F"
"STUDY1","STUDY1-704-1260","TEMP","Temperature",97.6,"F"
"STUDY1","STUDY1-704-1260","TEMP","Temperature",98,"F"
"STUDY1","STUDY1-704-1260","TEMP","Temperature",97.8,"F"
"STUDY1","STUDY1-704-1260","TEMP","Temperature",98.2,"F"
"STUDY1","STUDY1-704-1260","TEMP","Temperature",97.3,"F"
"STUDY1","STUDY1-704-1260","TEMP","Temperature",98,"F"
"STUDY1","STUDY1-704-1266","TEMP","Temperature",97.4,"F"
"STUDY1","STUDY1-704-1266","TEMP","Temperature",98.1,"F"
"STUDY1","STUDY1-704-1266","TEMP","Temperature",96.9,"F"
"STUDY1","STUDY1-704-1266","TEMP","Temperature",97.8,"F"
"STUDY1","STUDY1-704-1266","TEMP","Temperature",96.7,"F"
"STUDY1","STUDY1-704-1266","TEMP","Temperature",97.5,"F"
"STUDY1","STUDY1-704-1266","TEMP","Temperature",98,"F"
"STUDY1","STUDY1-704-1266","TEMP","Temperature",97.7,"F"
"STUDY1","STUDY1-704-1266","TEMP","Temperature",98.3,"F"
"STUDY1","STUDY1-704-1323","TEMP","Temperature",97.2,"F"
"STUDY1","STUDY1-704-1323","TEMP","Temperature",98,"F"
"STUDY1","STUDY1-704-1323","TEMP","Temperature",97.4,"F"
"STUDY1","STUDY1-704-1323","TEMP","Temperature",97.6,"F"
"STUDY1","STUDY1-704-1323","TEMP","Temperature",98,"F"
"STUDY1","STUDY1-704-1323","TEMP","Temperature",98,"F"
"STUDY1","STUDY1-704-1323","TEMP","Temperature",97.8,"F"
"STUDY1","STUDY1-704-1325","TEMP","Temperature",96.3,"F"
"STUDY1","STUDY1-704-1325","TEMP","Temperature",97.4,"F"
"STUDY1","STUDY1-704-1325","TEMP","Temperature",97.6,"F"
"STUDY1","STUDY1-704-1325","TEMP","Temperature",97.9,"F"
"STUDY1","STUDY1-704-1325","TEMP","Temperature",98,"F"
"STUDY1","STUDY1-704-1325","TEMP","Temperature",98.3,"F"
"STUDY1","STUDY1-704-1325","TEMP","Temperature",98.4,"F"
"STUDY1","STUDY1-704-1325","TEMP","Temperature",98.7,"F"
"STUDY1","STUDY1-704-1325","TEMP","Temperature",98.2,"F"
"STUDY1","STUDY1-704-1325","TEMP","Temperature",98.6,"F"
"STUDY1","STUDY1-704-1332","TEMP","Temperature",99,"F"
"STUDY1","STUDY1-704-1332","TEMP","Temperature",98.7,"F"
"STUDY1","STUDY1-704-1332","TEMP","Temperature",97.9,"F"
"STUDY1","STUDY1-704-1332","TEMP","Temperature",98.7,"F"
"STUDY1","STUDY1-704-1332","TEMP","Temperature",98.8,"F"
"STUDY1","STUDY1-704-1332","TEMP","Temperature",99.3,"F"
"STUDY1","STUDY1-704-1332","TEMP","Temperature",98.5,"F"
"STUDY1","STUDY1-704-1332","TEMP","Temperature",99,"F"
"STUDY1","STUDY1-704-1332","TEMP","Temperature",98.8,"F"
"STUDY1","STUDY1-704-1332","TEMP","Temperature",98.2,"F"
"STUDY1","STUDY1-704-1351","TEMP","Temperature",97.6,"F"
"STUDY1","STUDY1-704-1351","TEMP","Temperature",98.2,"F"
"STUDY1","STUDY1-704-1351","TEMP","Temperature",98.5,"F"
"STUDY1","STUDY1-704-1351","TEMP","Temperature",98.3,"F"
"STUDY1","STUDY1-704-1351","TEMP","Temperature",98.1,"F"
"STUDY1","STUDY1-704-1351","TEMP","Temperature",98.6,"F"
"STUDY1","STUDY1-704-1351","TEMP","Temperature",98.4,"F"
"STUDY1","STUDY1-704-1351","TEMP","Temperature",98,"F"
"STUDY1","STUDY1-704-1351","TEMP","Temperature",97.4,"F"
"STUDY1","STUDY1-704-1351","TEMP","Temperature",98.2,"F"
"STUDY1","STUDY1-704-1351","TEMP","Temperature",98,"F"
"STUDY1","STUDY1-704-1351","TEMP","Temperature",98,"F"
"STUDY1","STUDY1-704-1388","TEMP","Temperature",96,"F"
"STUDY1","STUDY1-704-1388","TEMP","Temperature",97.2,"F"
"STUDY1","STUDY1-704-1388","TEMP","Temperature",97.6,"F"
"STUDY1","STUDY1-704-1388","TEMP","Temperature",97.4,"F"
"STUDY1","STUDY1-704-1388","TEMP","Temperature",97.8,"F"
"STUDY1","STUDY1-704-1388","TEMP","Temperature",97.4,"F"
"STUDY1","STUDY1-704-1388","TEMP","Temperature",98,"F"
"STUDY1","STUDY1-704-1388","TEMP","Temperature",98.3,"F"
"STUDY1","STUDY1-704-1388","TEMP","Temperature",98.2,"F"
"STUDY1","STUDY1-704-1388","TEMP","Temperature",98,"F"
"STUDY1","STUDY1-704-1388","TEMP","Temperature",98.5,"F"
"STUDY1","STUDY1-704-1388","TEMP","Temperature",98,"F"
"STUDY1","STUDY1-704-1388","TEMP","Temperature",98.4,"F"
"STUDY1","STUDY1-704-1388","TEMP","Temperature",98.2,"F"
"STUDY1","STUDY1-704-1435","TEMP","Temperature",97.6,"F"
"STUDY1","STUDY1-704-1435","TEMP","Temperature",97.2,"F"
"STUDY1","STUDY1-704-1435","TEMP","Temperature",98.7,"F"
"STUDY1","STUDY1-704-1435","TEMP","Temperature",98.4,"F"
"STUDY1","STUDY1-704-1435","TEMP","Temperature",97.8,"F"
"STUDY1","STUDY1-704-1435","TEMP","Temperature",98.5,"F"
"STUDY1","STUDY1-704-1435","TEMP","Temperature",98.3,"F"
"STUDY1","STUDY1-704-1435","TEMP","Temperature",97.9,"F"
"STUDY1","STUDY1-704-1445","TEMP","Temperature",97.6,"F"
"STUDY1","STUDY1-704-1445","TEMP","Temperature",98,"F"
"STUDY1","STUDY1-704-1445","TEMP","Temperature",98.4,"F"
"STUDY1","STUDY1-704-1445","TEMP","Temperature",98.2,"F"
"STUDY1","STUDY1-704-1445","TEMP","Temperature",98,"F"
"STUDY1","STUDY1-704-1445","TEMP","Temperature",98.3,"F"
"STUDY1","STUDY1-704-1445","TEMP","Temperature",98.7,"F"
"STUDY1","STUDY1-704-1445","TEMP","Temperature",98.5,"F"
"STUDY1","STUDY1-704-1445","TEMP","Temperature",98.8,"F"
"STUDY1","STUDY1-704-1445","TEMP","Temperature",98.4,"F"
"STUDY1","STUDY1-704-1445","TEMP","Temperature",98,"F"
"STUDY1","STUDY1-704-1445","TEMP","Temperature",97.6,"F"
"STUDY1","STUDY1-705-1018","TEMP","Temperature",98.6,"F"
"STUDY1","STUDY1-705-1018","TEMP","Temperature",98.4,"F"
"STUDY1","STUDY1-705-1018","TEMP","Temperature",98.4,"F"
"STUDY1","STUDY1-705-1031","TEMP","Temperature",98.6,"F"
"STUDY1","STUDY1-705-1031","TEMP","Temperature",98.4,"F"
"STUDY1","STUDY1-705-1031","TEMP","Temperature",98.6,"F"
"STUDY1","STUDY1-705-1031","TEMP","Temperature",98.4,"F"
"STUDY1","STUDY1-705-1031","TEMP","Temperature",98.4,"F"
"STUDY1","STUDY1-705-1031","TEMP","Temperature",98.4,"F"
"STUDY1","STUDY1-705-1031","TEMP","Temperature",98.4,"F"
"STUDY1","STUDY1-705-1031","TEMP","Temperature",98.4,"F"
"STUDY1","STUDY1-705-1031","TEMP","Temperature",98.4,"F"
"STUDY1","STUDY1-705-1031","TEMP","Temperature",98.4,"F"
"STUDY1","STUDY1-705-1031","TEMP","Temperature",98.4,"F"
"STUDY1","STUDY1-705-1031","TEMP","Temperature",98.6,"F"
"STUDY1","STUDY1-705-1031","TEMP","Temperature",98.6,"F"
"STUDY1","STUDY1-705-1059","TEMP","Temperature",98.5,"F"
"STUDY1","STUDY1-705-1059","TEMP","Temperature",98.4,"F"
"STUDY1","STUDY1-705-1059","TEMP","Temperature",98.4,"F"
"STUDY1","STUDY1-705-1059","TEMP","Temperature",98.4,"F"
"STUDY1","STUDY1-705-1059","TEMP","Temperature",98.4,"F"
"STUDY1","STUDY1-705-1059","TEMP","Temperature",98.4,"F"
"STUDY1","STUDY1-705-1059","TEMP","Temperature",98.4,"F"
"STUDY1","STUDY1-705-1059","TEMP","Temperature",98.4,"F"
"STUDY1","STUDY1-705-1059","TEMP","Temperature",98.5,"F"
"STUDY1","STUDY1-705-1059","TEMP","Temperature",98.6,"F"
"STUDY1","STUDY1-705-1059","TEMP","Temperature",98.4,"F"
"STUDY1","STUDY1-705-1059","TEMP","Temperature",98.6,"F"
"STUDY1","STUDY1-705-1186","TEMP","Temperature",98.6,"F"
"STUDY1","STUDY1-705-1186","TEMP","Temperature",98.5,"F"
"STUDY1","STUDY1-705-1186","TEMP","Temperature",98.5,"F"
"STUDY1","STUDY1-705-1186","TEMP","Temperature",98.4,"F"
"STUDY1","STUDY1-705-1186","TEMP","Temperature",98.4,"F"
"STUDY1","STUDY1-705-1186","TEMP","Temperature",98.4,"F"
"STUDY1","STUDY1-705-1199","TEMP","Temperature",98.4,"F"
"STUDY1","STUDY1-705-1199","TEMP","Temperature",98.4,"F"
"STUDY1","STUDY1-705-1199","TEMP","Temperature",98.4,"F"
"STUDY1","STUDY1-705-1199","TEMP","Temperature",98.4,"F"
"STUDY1","STUDY1-705-1280","TEMP","Temperature",98.4,"F"
"STUDY1","STUDY1-705-1280","TEMP","Temperature",98.6,"F"
"STUDY1","STUDY1-705-1280","TEMP","Temperature",98.2,"F"
"STUDY1","STUDY1-705-1280","TEMP","Temperature",98.4,"F"
"STUDY1","STUDY1-705-1280","TEMP","Temperature",98.6,"F"
"STUDY1","STUDY1-705-1280","TEMP","Temperature",98.4,"F"
"STUDY1","STUDY1-705-1280","TEMP","Temperature",98.6,"F"
"STUDY1","STUDY1-705-1280","TEMP","Temperature",98.4,"F"
"STUDY1","STUDY1-705-1280","TEMP","Temperature",98.4,"F"
"STUDY1","STUDY1-705-1280","TEMP","Temperature",98.4,"F"
"STUDY1","STUDY1-705-1280","TEMP","Temperature",98.4,"F"
"STUDY1","STUDY1-705-1280","TEMP","Temperature",98.4,"F"
"STUDY1","STUDY1-705-1280","TEMP","Temperature",98.3,"F"
"STUDY1","STUDY1-705-1280","TEMP","Temperature",98.7,"F"
"STUDY1","STUDY1-705-1281","TEMP","Temperature",98.6,"F"
"STUDY1","STUDY1-705-1281","TEMP","Temperature",98.6,"F"
"STUDY1","STUDY1-705-1281","TEMP","Temperature",98.6,"F"
"STUDY1","STUDY1-705-1281","TEMP","Temperature",98.4,"F"
"STUDY1","STUDY1-705-1281","TEMP","Temperature",98.5,"F"
"STUDY1","STUDY1-705-1281","TEMP","Temperature",98.6,"F"
"STUDY1","STUDY1-705-1281","TEMP","Temperature",98.5,"F"
"STUDY1","STUDY1-705-1281","TEMP","Temperature",98.4,"F"
"STUDY1","STUDY1-705-1281","TEMP","Temperature",98.4,"F"
"STUDY1","STUDY1-705-1281","TEMP","Temperature",98.4,"F"
"STUDY1","STUDY1-705-1281","TEMP","Temperature",98.4,"F"
"STUDY1","STUDY1-705-1282","TEMP","Temperature",98.5,"F"
"STUDY1","STUDY1-705-1282","TEMP","Temperature",98.4,"F"
"STUDY1","STUDY1-705-1282","TEMP","Temperature",98.3,"F"
"STUDY1","STUDY1-705-1282","TEMP","Temperature",98.5,"F"
"STUDY1","STUDY1-705-1282","TEMP","Temperature",98.5,"F"
"STUDY1","STUDY1-705-1282","TEMP","Temperature",98.4,"F"
"STUDY1","STUDY1-705-1282","TEMP","Temperature",98.4,"F"
"STUDY1","STUDY1-705-1282","TEMP","Temperature",98.5,"F"
"STUDY1","STUDY1-705-1282","TEMP","Temperature",98.4,"F"
"STUDY1","STUDY1-705-1282","TEMP","Temperature",98.4,"F"
"STUDY1","STUDY1-705-1282","TEMP","Temperature",98.4,"F"
"STUDY1","STUDY1-705-1282","TEMP","Temperature",98.4,"F"
"STUDY1","STUDY1-705-1282","TEMP","Temperature",98.6,"F"
"STUDY1","STUDY1-705-1282","TEMP","Temperature",98.6,"F"
"STUDY1","STUDY1-705-1292","TEMP","Temperature",98.6,"F"
"STUDY1","STUDY1-705-1292","TEMP","Temperature",98,"F"
"STUDY1","STUDY1-705-1292","TEMP","Temperature",98.4,"F"
"STUDY1","STUDY1-705-1292","TEMP","Temperature",98.4,"F"
"STUDY1","STUDY1-705-1292","TEMP","Temperature",98.4,"F"
"STUDY1","STUDY1-705-1292","TEMP","Temperature",98.4,"F"
"STUDY1","STUDY1-705-1292","TEMP","Temperature",98.4,"F"
"STUDY1","STUDY1-705-1292","TEMP","Temperature",98.4,"F"
"STUDY1","STUDY1-705-1292","TEMP","Temperature",98.4,"F"
"STUDY1","STUDY1-705-1292","TEMP","Temperature",98.4,"F"
"STUDY1","STUDY1-705-1292","TEMP","Temperature",98.6,"F"
"STUDY1","STUDY1-705-1292","TEMP","Temperature",98.5,"F"
"STUDY1","STUDY1-705-1292","TEMP","Temperature",98.5,"F"
"STUDY1","STUDY1-705-1292","TEMP","Temperature",98.5,"F"
"STUDY1","STUDY1-705-1303","TEMP","Temperature",98.4,"F"
"STUDY1","STUDY1-705-1303","TEMP","Temperature",98.4,"F"
"STUDY1","STUDY1-705-1303","TEMP","Temperature",98.4,"F"
"STUDY1","STUDY1-705-1303","TEMP","Temperature",98.4,"F"
"STUDY1","STUDY1-705-1303","TEMP","Temperature",98.6,"F"
"STUDY1","STUDY1-705-1303","TEMP","Temperature",98.6,"F"
"STUDY1","STUDY1-705-1303","TEMP","Temperature",98.1,"F"
"STUDY1","STUDY1-705-1303","TEMP","Temperature",98.4,"F"
"STUDY1","STUDY1-705-1303","TEMP","Temperature",98.4,"F"
"STUDY1","STUDY1-705-1303","TEMP","Temperature",98.6,"F"
"STUDY1","STUDY1-705-1303","TEMP","Temperature",98.6,"F"
"STUDY1","STUDY1-705-1310","TEMP","Temperature",98.6,"F"
"STUDY1","STUDY1-705-1310","TEMP","Temperature",98.3,"F"
"STUDY1","STUDY1-705-1310","TEMP","Temperature",98.4,"F"
"STUDY1","STUDY1-705-1310","TEMP","Temperature",98.5,"F"
"STUDY1","STUDY1-705-1310","TEMP","Temperature",98.4,"F"
"STUDY1","STUDY1-705-1310","TEMP","Temperature",98.4,"F"
"STUDY1","STUDY1-705-1310","TEMP","Temperature",98.4,"F"
"STUDY1","STUDY1-705-1310","TEMP","Temperature",98.4,"F"
"STUDY1","STUDY1-705-1310","TEMP","Temperature",98.4,"F"
"STUDY1","STUDY1-705-1310","TEMP","Temperature",98.4,"F"
"STUDY1","STUDY1-705-1349","TEMP","Temperature",98.6,"F"
"STUDY1","STUDY1-705-1349","TEMP","Temperature",98,"F"
"STUDY1","STUDY1-705-1349","TEMP","Temperature",98.6,"F"
"STUDY1","STUDY1-705-1349","TEMP","Temperature",98.4,"F"
"STUDY1","STUDY1-705-1349","TEMP","Temperature",98.6,"F"
"STUDY1","STUDY1-705-1349","TEMP","Temperature",98.4,"F"
"STUDY1","STUDY1-705-1349","TEMP","Temperature",98.6,"F"
"STUDY1","STUDY1-705-1349","TEMP","Temperature",98.6,"F"
"STUDY1","STUDY1-705-1349","TEMP","Temperature",98.3,"F"
"STUDY1","STUDY1-705-1349","TEMP","Temperature",98.4,"F"
"STUDY1","STUDY1-705-1349","TEMP","Temperature",98.5,"F"
"STUDY1","STUDY1-705-1349","TEMP","Temperature",98.4,"F"
"STUDY1","STUDY1-705-1349","TEMP","Temperature",98.6,"F"
"STUDY1","STUDY1-705-1377","TEMP","Temperature",98.4,"F"
"STUDY1","STUDY1-705-1377","TEMP","Temperature",98.4,"F"
"STUDY1","STUDY1-705-1377","TEMP","Temperature",98.4,"F"
"STUDY1","STUDY1-705-1377","TEMP","Temperature",98.4,"F"
"STUDY1","STUDY1-705-1377","TEMP","Temperature",98.6,"F"
"STUDY1","STUDY1-705-1377","TEMP","Temperature",98.4,"F"
"STUDY1","STUDY1-705-1377","TEMP","Temperature",98.3,"F"
"STUDY1","STUDY1-705-1382","TEMP","Temperature",98.6,"F"
"STUDY1","STUDY1-705-1382","TEMP","Temperature",98.5,"F"
"STUDY1","STUDY1-705-1382","TEMP","Temperature",98.4,"F"
"STUDY1","STUDY1-705-1393","TEMP","Temperature",98.6,"F"
"STUDY1","STUDY1-705-1393","TEMP","Temperature",98.4,"F"
"STUDY1","STUDY1-705-1393","TEMP","Temperature",98.4,"F"
"STUDY1","STUDY1-705-1393","TEMP","Temperature",98.4,"F"
"STUDY1","STUDY1-705-1393","TEMP","Temperature",98.6,"F"
"STUDY1","STUDY1-705-1393","TEMP","Temperature",98.4,"F"
"STUDY1","STUDY1-705-1393","TEMP","Temperature",98.4,"F"
"STUDY1","STUDY1-705-1393","TEMP","Temperature",98.4,"F"
"STUDY1","STUDY1-705-1393","TEMP","Temperature",98.4,"F"
"STUDY1","STUDY1-705-1393","TEMP","Temperature",98.4,"F"
"STUDY1","STUDY1-705-1393","TEMP","Temperature",98.4,"F"
"STUDY1","STUDY1-705-1393","TEMP","Temperature",98.6,"F"
"STUDY1","STUDY1-705-1431","TEMP","Temperature",98,"F"
"STUDY1","STUDY1-705-1431","TEMP","Temperature",98.4,"F"
"STUDY1","STUDY1-705-1431","TEMP","Temperature",98.5,"F"
"STUDY1","STUDY1-705-1431","TEMP","Temperature",98.4,"F"
"STUDY1","STUDY1-705-1431","TEMP","Temperature",98.4,"F"
"STUDY1","STUDY1-705-1431","TEMP","Temperature",98.4,"F"
"STUDY1","STUDY1-705-1431","TEMP","Temperature",98.6,"F"
"STUDY1","STUDY1-705-1431","TEMP","Temperature",98.1,"F"
"STUDY1","STUDY1-705-1431","TEMP","Temperature",98.5,"F"
"STUDY1","STUDY1-705-1431","TEMP","Temperature",98.6,"F"
"STUDY1","STUDY1-705-1431","TEMP","Temperature",98.5,"F"
"STUDY1","STUDY1-705-1431","TEMP","Temperature",98.6,"F"
"STUDY1","STUDY1-705-1431","TEMP","Temperature",98.5,"F"
"STUDY1","STUDY1-705-1431","TEMP","Temperature",98.4,"F"
"STUDY1","STUDY1-706-1041","TEMP","Temperature",98,"F"
"STUDY1","STUDY1-706-1041","TEMP","Temperature",97.8,"F"
"STUDY1","STUDY1-706-1041","TEMP","Temperature",97.8,"F"
"STUDY1","STUDY1-706-1041","TEMP","Temperature",98,"F"
"STUDY1","STUDY1-706-1041","TEMP","Temperature",97.8,"F"
"STUDY1","STUDY1-706-1041","TEMP","Temperature",98.6,"F"
"STUDY1","STUDY1-706-1041","TEMP","Temperature",97.6,"F"
"STUDY1","STUDY1-706-1041","TEMP","Temperature",97.2,"F"
"STUDY1","STUDY1-706-1041","TEMP","Temperature",97.6,"F"
"STUDY1","STUDY1-706-1041","TEMP","Temperature",36.2,"F"
"STUDY1","STUDY1-706-1041","TEMP","Temperature",37,"F"
"STUDY1","STUDY1-706-1041","TEMP","Temperature",37,"F"
"STUDY1","STUDY1-706-1041","TEMP","Temperature",36.2,"F"
"STUDY1","STUDY1-706-1041","TEMP","Temperature",36.2,"F"
"STUDY1","STUDY1-706-1049","TEMP","Temperature",97.8,"F"
"STUDY1","STUDY1-706-1049","TEMP","Temperature",97.8,"F"
"STUDY1","STUDY1-706-1049","TEMP","Temperature",97.8,"F"
"STUDY1","STUDY1-706-1049","TEMP","Temperature",98.2,"F"
"STUDY1","STUDY1-706-1049","TEMP","Temperature",98,"F"
"STUDY1","STUDY1-706-1049","TEMP","Temperature",98,"F"
"STUDY1","STUDY1-706-1049","TEMP","Temperature",98,"F"
"STUDY1","STUDY1-706-1049","TEMP","Temperature",97.2,"F"
"STUDY1","STUDY1-706-1049","TEMP","Temperature",36.2,"F"
"STUDY1","STUDY1-706-1384","TEMP","Temperature",98.6,"F"
"STUDY1","STUDY1-706-1384","TEMP","Temperature",98,"F"
"STUDY1","STUDY1-706-1384","TEMP","Temperature",97.8,"F"
"STUDY1","STUDY1-706-1384","TEMP","Temperature",98,"F"
"STUDY1","STUDY1-706-1384","TEMP","Temperature",36.5,"F"
"STUDY1","STUDY1-707-1037","TEMP","Temperature",98,"F"
"STUDY1","STUDY1-707-1037","TEMP","Temperature",97.8,"F"
"STUDY1","STUDY1-707-1037","TEMP","Temperature",98,"F"
"STUDY1","STUDY1-707-1037","TEMP","Temperature",97.6,"F"
"STUDY1","STUDY1-707-1206","TEMP","Temperature",97.8,"F"
"STUDY1","STUDY1-707-1206","TEMP","Temperature",98,"F"
"STUDY1","STUDY1-707-1206","TEMP","Temperature",97.8,"F"
"STUDY1","STUDY1-707-1206","TEMP","Temperature",98,"F"
"STUDY1","STUDY1-707-1206","TEMP","Temperature",97.6,"F"
"STUDY1","STUDY1-707-1206","TEMP","Temperature",98,"F"
"STUDY1","STUDY1-707-1206","TEMP","Temperature",98,"F"
"STUDY1","STUDY1-707-1206","TEMP","Temperature",98.2,"F"
"STUDY1","STUDY1-707-1206","TEMP","Temperature",97.6,"F"
"STUDY1","STUDY1-707-1206","TEMP","Temperature",98.4,"F"
"STUDY1","STUDY1-707-1206","TEMP","Temperature",97.8,"F"
"STUDY1","STUDY1-707-1206","TEMP","Temperature",97.8,"F"
"STUDY1","STUDY1-707-1206","TEMP","Temperature",97.8,"F"
"STUDY1","STUDY1-707-1206","TEMP","Temperature",97.8,"F"
"STUDY1","STUDY1-708-1019","TEMP","Temperature",96.8,"F"
"STUDY1","STUDY1-708-1019","TEMP","Temperature",94.2,"F"
"STUDY1","STUDY1-708-1019","TEMP","Temperature",97.5,"F"
"STUDY1","STUDY1-708-1019","TEMP","Temperature",96.3,"F"
"STUDY1","STUDY1-708-1032","TEMP","Temperature",98.2,"F"
"STUDY1","STUDY1-708-1032","TEMP","Temperature",97.4,"F"
"STUDY1","STUDY1-708-1032","TEMP","Temperature",96.7,"F"
"STUDY1","STUDY1-708-1032","TEMP","Temperature",97.1,"F"
"STUDY1","STUDY1-708-1032","TEMP","Temperature",97.6,"F"
"STUDY1","STUDY1-708-1032","TEMP","Temperature",98.6,"F"
"STUDY1","STUDY1-708-1084","TEMP","Temperature",97.6,"F"
"STUDY1","STUDY1-708-1084","TEMP","Temperature",96.6,"F"
"STUDY1","STUDY1-708-1084","TEMP","Temperature",97.2,"F"
"STUDY1","STUDY1-708-1084","TEMP","Temperature",97.5,"F"
"STUDY1","STUDY1-708-1084","TEMP","Temperature",97.4,"F"
"STUDY1","STUDY1-708-1084","TEMP","Temperature",98.2,"F"
"STUDY1","STUDY1-708-1084","TEMP","Temperature",97,"F"
"STUDY1","STUDY1-708-1084","TEMP","Temperature",97.4,"F"
"STUDY1","STUDY1-708-1084","TEMP","Temperature",97.2,"F"
"STUDY1","STUDY1-708-1084","TEMP","Temperature",97.6,"F"
"STUDY1","STUDY1-708-1084","TEMP","Temperature",97.3,"F"
"STUDY1","STUDY1-708-1084","TEMP","Temperature",99.2,"F"
"STUDY1","STUDY1-708-1084","TEMP","Temperature",97.1,"F"
"STUDY1","STUDY1-708-1084","TEMP","Temperature",97.8,"F"
"STUDY1","STUDY1-708-1087","TEMP","Temperature",98.4,"F"
"STUDY1","STUDY1-708-1087","TEMP","Temperature",97.3,"F"
"STUDY1","STUDY1-708-1087","TEMP","Temperature",98.2,"F"
"STUDY1","STUDY1-708-1087","TEMP","Temperature",96.9,"F"
"STUDY1","STUDY1-708-1087","TEMP","Temperature",98,"F"
"STUDY1","STUDY1-708-1087","TEMP","Temperature",96.8,"F"
"STUDY1","STUDY1-708-1087","TEMP","Temperature",97.7,"F"
"STUDY1","STUDY1-708-1087","TEMP","Temperature",97.5,"F"
"STUDY1","STUDY1-708-1087","TEMP","Temperature",98.4,"F"
"STUDY1","STUDY1-708-1087","TEMP","Temperature",97.5,"F"
"STUDY1","STUDY1-708-1087","TEMP","Temperature",96.4,"F"
"STUDY1","STUDY1-708-1087","TEMP","Temperature",96.1,"F"
"STUDY1","STUDY1-708-1087","TEMP","Temperature",97.8,"F"
"STUDY1","STUDY1-708-1158","TEMP","Temperature",98.1,"F"
"STUDY1","STUDY1-708-1158","TEMP","Temperature",97.8,"F"
"STUDY1","STUDY1-708-1158","TEMP","Temperature",98.9,"F"
"STUDY1","STUDY1-708-1158","TEMP","Temperature",97.5,"F"
"STUDY1","STUDY1-708-1158","TEMP","Temperature",98,"F"
"STUDY1","STUDY1-708-1158","TEMP","Temperature",98.6,"F"
"STUDY1","STUDY1-708-1158","TEMP","Temperature",97.9,"F"
"STUDY1","STUDY1-708-1158","TEMP","Temperature",98.7,"F"
"STUDY1","STUDY1-708-1171","TEMP","Temperature",96.5,"F"
"STUDY1","STUDY1-708-1171","TEMP","Temperature",96.9,"F"
"STUDY1","STUDY1-708-1171","TEMP","Temperature",98,"F"
"STUDY1","STUDY1-708-1171","TEMP","Temperature",97,"F"
"STUDY1","STUDY1-708-1171","TEMP","Temperature",97.7,"F"
"STUDY1","STUDY1-708-1171","TEMP","Temperature",97,"F"
"STUDY1","STUDY1-708-1171","TEMP","Temperature",96.8,"F"
"STUDY1","STUDY1-708-1171","TEMP","Temperature",97.2,"F"
"STUDY1","STUDY1-708-1171","TEMP","Temperature",97.9,"F"
"STUDY1","STUDY1-708-1171","TEMP","Temperature",97.5,"F"
"STUDY1","STUDY1-708-1171","TEMP","Temperature",97.2,"F"
"STUDY1","STUDY1-708-1171","TEMP","Temperature",97.4,"F"
"STUDY1","STUDY1-708-1171","TEMP","Temperature",94.5,"F"
"STUDY1","STUDY1-708-1171","TEMP","Temperature",97.3,"F"
"STUDY1","STUDY1-708-1178","TEMP","Temperature",97.9,"F"
"STUDY1","STUDY1-708-1178","TEMP","Temperature",97.3,"F"
"STUDY1","STUDY1-708-1178","TEMP","Temperature",97.8,"F"
"STUDY1","STUDY1-708-1178","TEMP","Temperature",98.8,"F"
"STUDY1","STUDY1-708-1178","TEMP","Temperature",98.9,"F"
"STUDY1","STUDY1-708-1178","TEMP","Temperature",98.4,"F"
"STUDY1","STUDY1-708-1178","TEMP","Temperature",96.7,"F"
"STUDY1","STUDY1-708-1178","TEMP","Temperature",98.8,"F"
"STUDY1","STUDY1-708-1178","TEMP","Temperature",98.4,"F"
"STUDY1","STUDY1-708-1178","TEMP","Temperature",97.5,"F"
"STUDY1","STUDY1-708-1213","TEMP","Temperature",99,"F"
"STUDY1","STUDY1-708-1213","TEMP","Temperature",97.6,"F"
"STUDY1","STUDY1-708-1213","TEMP","Temperature",97.2,"F"
"STUDY1","STUDY1-708-1213","TEMP","Temperature",96.9,"F"
"STUDY1","STUDY1-708-1213","TEMP","Temperature",96.5,"F"
"STUDY1","STUDY1-708-1216","TEMP","Temperature",98,"F"
"STUDY1","STUDY1-708-1216","TEMP","Temperature",97.7,"F"
"STUDY1","STUDY1-708-1216","TEMP","Temperature",96.8,"F"
"STUDY1","STUDY1-708-1216","TEMP","Temperature",97.6,"F"
"STUDY1","STUDY1-708-1216","TEMP","Temperature",97.9,"F"
"STUDY1","STUDY1-708-1216","TEMP","Temperature",97.7,"F"
"STUDY1","STUDY1-708-1216","TEMP","Temperature",97.9,"F"
"STUDY1","STUDY1-708-1216","TEMP","Temperature",96.4,"F"
"STUDY1","STUDY1-708-1236","TEMP","Temperature",97.3,"F"
"STUDY1","STUDY1-708-1236","TEMP","Temperature",97.1,"F"
"STUDY1","STUDY1-708-1236","TEMP","Temperature",97.4,"F"
"STUDY1","STUDY1-708-1253","TEMP","Temperature",98,"F"
"STUDY1","STUDY1-708-1253","TEMP","Temperature",97.8,"F"
"STUDY1","STUDY1-708-1253","TEMP","Temperature",96.6,"F"
"STUDY1","STUDY1-708-1253","TEMP","Temperature",97.5,"F"
"STUDY1","STUDY1-708-1253","TEMP","Temperature",95.6,"F"
"STUDY1","STUDY1-708-1253","TEMP","Temperature",96.7,"F"
"STUDY1","STUDY1-708-1253","TEMP","Temperature",96.7,"F"
"STUDY1","STUDY1-708-1253","TEMP","Temperature",96.8,"F"
"STUDY1","STUDY1-708-1253","TEMP","Temperature",97.2,"F"
"STUDY1","STUDY1-708-1253","TEMP","Temperature",97.7,"F"
"STUDY1","STUDY1-708-1253","TEMP","Temperature",98,"F"
"STUDY1","STUDY1-708-1253","TEMP","Temperature",95.8,"F"
"STUDY1","STUDY1-708-1253","TEMP","Temperature",98.2,"F"
"STUDY1","STUDY1-708-1253","TEMP","Temperature",97.3,"F"
"STUDY1","STUDY1-708-1272","TEMP","Temperature",96.7,"F"
"STUDY1","STUDY1-708-1272","TEMP","Temperature",97.3,"F"
"STUDY1","STUDY1-708-1272","TEMP","Temperature",98,"F"
"STUDY1","STUDY1-708-1272","TEMP","Temperature",97.8,"F"
"STUDY1","STUDY1-708-1272","TEMP","Temperature",95.8,"F"
"STUDY1","STUDY1-708-1272","TEMP","Temperature",97.2,"F"
"STUDY1","STUDY1-708-1272","TEMP","Temperature",97.3,"F"
"STUDY1","STUDY1-708-1272","TEMP","Temperature",97.3,"F"
"STUDY1","STUDY1-708-1272","TEMP","Temperature",96.5,"F"
"STUDY1","STUDY1-708-1286","TEMP","Temperature",97.7,"F"
"STUDY1","STUDY1-708-1286","TEMP","Temperature",97.4,"F"
"STUDY1","STUDY1-708-1286","TEMP","Temperature",98.7,"F"
"STUDY1","STUDY1-708-1286","TEMP","Temperature",97.9,"F"
"STUDY1","STUDY1-708-1286","TEMP","Temperature",97.3,"F"
"STUDY1","STUDY1-708-1286","TEMP","Temperature",98,"F"
"STUDY1","STUDY1-708-1286","TEMP","Temperature",97.5,"F"
"STUDY1","STUDY1-708-1286","TEMP","Temperature",97.5,"F"
"STUDY1","STUDY1-708-1286","TEMP","Temperature",97.8,"F"
"STUDY1","STUDY1-708-1286","TEMP","Temperature",97.6,"F"
"STUDY1","STUDY1-708-1286","TEMP","Temperature",98,"F"
"STUDY1","STUDY1-708-1286","TEMP","Temperature",98.5,"F"
"STUDY1","STUDY1-708-1286","TEMP","Temperature",97.6,"F"
"STUDY1","STUDY1-708-1286","TEMP","Temperature",97.6,"F"
"STUDY1","STUDY1-708-1296","TEMP","Temperature",98.2,"F"
"STUDY1","STUDY1-708-1296","TEMP","Temperature",98,"F"
"STUDY1","STUDY1-708-1296","TEMP","Temperature",98,"F"
"STUDY1","STUDY1-708-1296","TEMP","Temperature",98.1,"F"
"STUDY1","STUDY1-708-1296","TEMP","Temperature",97.8,"F"
"STUDY1","STUDY1-708-1296","TEMP","Temperature",98.2,"F"
"STUDY1","STUDY1-708-1296","TEMP","Temperature",97.4,"F"
"STUDY1","STUDY1-708-1296","TEMP","Temperature",97.6,"F"
"STUDY1","STUDY1-708-1296","TEMP","Temperature",98.2,"F"
"STUDY1","STUDY1-708-1296","TEMP","Temperature",98.9,"F"
"STUDY1","STUDY1-708-1296","TEMP","Temperature",99.1,"F"
"STUDY1","STUDY1-708-1296","TEMP","Temperature",97.5,"F"
"STUDY1","STUDY1-708-1296","TEMP","Temperature",98.5,"F"
"STUDY1","STUDY1-708-1297","TEMP","Temperature",98.8,"F"
"STUDY1","STUDY1-708-1297","TEMP","Temperature",98,"F"
"STUDY1","STUDY1-708-1297","TEMP","Temperature",98.6,"F"
"STUDY1","STUDY1-708-1297","TEMP","Temperature",97.7,"F"
"STUDY1","STUDY1-708-1297","TEMP","Temperature",97.2,"F"
"STUDY1","STUDY1-708-1297","TEMP","Temperature",97.2,"F"
"STUDY1","STUDY1-708-1297","TEMP","Temperature",97,"F"
"STUDY1","STUDY1-708-1297","TEMP","Temperature",96.2,"F"
"STUDY1","STUDY1-708-1297","TEMP","Temperature",97.4,"F"
"STUDY1","STUDY1-708-1297","TEMP","Temperature",98,"F"
"STUDY1","STUDY1-708-1297","TEMP","Temperature",97.2,"F"
"STUDY1","STUDY1-708-1316","TEMP","Temperature",98.4,"F"
"STUDY1","STUDY1-708-1316","TEMP","Temperature",97.9,"F"
"STUDY1","STUDY1-708-1316","TEMP","Temperature",98.4,"F"
"STUDY1","STUDY1-708-1316","TEMP","Temperature",98,"F"
"STUDY1","STUDY1-708-1316","TEMP","Temperature",99,"F"
"STUDY1","STUDY1-708-1316","TEMP","Temperature",98.9,"F"
"STUDY1","STUDY1-708-1316","TEMP","Temperature",98.7,"F"
"STUDY1","STUDY1-708-1316","TEMP","Temperature",98.6,"F"
"STUDY1","STUDY1-708-1316","TEMP","Temperature",97.2,"F"
"STUDY1","STUDY1-708-1316","TEMP","Temperature",99.3,"F"
"STUDY1","STUDY1-708-1316","TEMP","Temperature",99.1,"F"
"STUDY1","STUDY1-708-1316","TEMP","Temperature",98.6,"F"
"STUDY1","STUDY1-708-1336","TEMP","Temperature",97.2,"F"
"STUDY1","STUDY1-708-1336","TEMP","Temperature",97,"F"
"STUDY1","STUDY1-708-1336","TEMP","Temperature",97.6,"F"
"STUDY1","STUDY1-708-1336","TEMP","Temperature",98.1,"F"
"STUDY1","STUDY1-708-1336","TEMP","Temperature",98.2,"F"
"STUDY1","STUDY1-708-1336","TEMP","Temperature",97.1,"F"
"STUDY1","STUDY1-708-1336","TEMP","Temperature",97,"F"
"STUDY1","STUDY1-708-1336","TEMP","Temperature",97.3,"F"
"STUDY1","STUDY1-708-1336","TEMP","Temperature",97.3,"F"
"STUDY1","STUDY1-708-1336","TEMP","Temperature",97.3,"F"
"STUDY1","STUDY1-708-1336","TEMP","Temperature",98.3,"F"
"STUDY1","STUDY1-708-1336","TEMP","Temperature",96.6,"F"
"STUDY1","STUDY1-708-1336","TEMP","Temperature",97.1,"F"
"STUDY1","STUDY1-708-1336","TEMP","Temperature",97.8,"F"
"STUDY1","STUDY1-708-1342","TEMP","Temperature",97.1,"F"
"STUDY1","STUDY1-708-1342","TEMP","Temperature",97.2,"F"
"STUDY1","STUDY1-708-1342","TEMP","Temperature",97.4,"F"
"STUDY1","STUDY1-708-1342","TEMP","Temperature",98.7,"F"
"STUDY1","STUDY1-708-1342","TEMP","Temperature",97.1,"F"
"STUDY1","STUDY1-708-1342","TEMP","Temperature",97,"F"
"STUDY1","STUDY1-708-1342","TEMP","Temperature",97.1,"F"
"STUDY1","STUDY1-708-1342","TEMP","Temperature",97.9,"F"
"STUDY1","STUDY1-708-1342","TEMP","Temperature",97.2,"F"
"STUDY1","STUDY1-708-1342","TEMP","Temperature",97.1,"F"
"STUDY1","STUDY1-708-1342","TEMP","Temperature",98.5,"F"
"STUDY1","STUDY1-708-1342","TEMP","Temperature",97.6,"F"
"STUDY1","STUDY1-708-1342","TEMP","Temperature",97.8,"F"
"STUDY1","STUDY1-708-1342","TEMP","Temperature",97.4,"F"
"STUDY1","STUDY1-708-1347","TEMP","Temperature",99.2,"F"
"STUDY1","STUDY1-708-1347","TEMP","Temperature",99.2,"F"
"STUDY1","STUDY1-708-1347","TEMP","Temperature",97.7,"F"
"STUDY1","STUDY1-708-1347","TEMP","Temperature",98.4,"F"
"STUDY1","STUDY1-708-1347","TEMP","Temperature",98.3,"F"
"STUDY1","STUDY1-708-1347","TEMP","Temperature",98,"F"
"STUDY1","STUDY1-708-1347","TEMP","Temperature",97.9,"F"
"STUDY1","STUDY1-708-1347","TEMP","Temperature",98.2,"F"
"STUDY1","STUDY1-708-1347","TEMP","Temperature",97.9,"F"
"STUDY1","STUDY1-708-1347","TEMP","Temperature",97.4,"F"
"STUDY1","STUDY1-708-1348","TEMP","Temperature",97.8,"F"
"STUDY1","STUDY1-708-1348","TEMP","Temperature",97,"F"
"STUDY1","STUDY1-708-1348","TEMP","Temperature",97.8,"F"
"STUDY1","STUDY1-708-1348","TEMP","Temperature",97.6,"F"
"STUDY1","STUDY1-708-1348","TEMP","Temperature",96.3,"F"
"STUDY1","STUDY1-708-1348","TEMP","Temperature",97.4,"F"
"STUDY1","STUDY1-708-1348","TEMP","Temperature",98.1,"F"
"STUDY1","STUDY1-708-1348","TEMP","Temperature",96.4,"F"
"STUDY1","STUDY1-708-1348","TEMP","Temperature",98,"F"
"STUDY1","STUDY1-708-1348","TEMP","Temperature",97.8,"F"
"STUDY1","STUDY1-708-1348","TEMP","Temperature",97.3,"F"
"STUDY1","STUDY1-708-1348","TEMP","Temperature",97.7,"F"
"STUDY1","STUDY1-708-1348","TEMP","Temperature",97.7,"F"
"STUDY1","STUDY1-708-1348","TEMP","Temperature",98,"F"
"STUDY1","STUDY1-708-1353","TEMP","Temperature",96.4,"F"
"STUDY1","STUDY1-708-1353","TEMP","Temperature",97.8,"F"
"STUDY1","STUDY1-708-1353","TEMP","Temperature",97.3,"F"
"STUDY1","STUDY1-708-1353","TEMP","Temperature",97.1,"F"
"STUDY1","STUDY1-708-1353","TEMP","Temperature",97,"F"
"STUDY1","STUDY1-708-1353","TEMP","Temperature",97.4,"F"
"STUDY1","STUDY1-708-1353","TEMP","Temperature",98.6,"F"
"STUDY1","STUDY1-708-1353","TEMP","Temperature",98.2,"F"
"STUDY1","STUDY1-708-1372","TEMP","Temperature",97,"F"
"STUDY1","STUDY1-708-1372","TEMP","Temperature",96.9,"F"
"STUDY1","STUDY1-708-1372","TEMP","Temperature",97.7,"F"
"STUDY1","STUDY1-708-1372","TEMP","Temperature",97.9,"F"
"STUDY1","STUDY1-708-1378","TEMP","Temperature",97.6,"F"
"STUDY1","STUDY1-708-1378","TEMP","Temperature",96.1,"F"
"STUDY1","STUDY1-708-1378","TEMP","Temperature",97.1,"F"
"STUDY1","STUDY1-708-1378","TEMP","Temperature",96.2,"F"
"STUDY1","STUDY1-708-1378","TEMP","Temperature",97.9,"F"
"STUDY1","STUDY1-708-1378","TEMP","Temperature",97.3,"F"
"STUDY1","STUDY1-708-1378","TEMP","Temperature",98,"F"
"STUDY1","STUDY1-708-1378","TEMP","Temperature",97,"F"
"STUDY1","STUDY1-708-1378","TEMP","Temperature",98.8,"F"
"STUDY1","STUDY1-708-1378","TEMP","Temperature",97.3,"F"
"STUDY1","STUDY1-708-1378","TEMP","Temperature",96.6,"F"
"STUDY1","STUDY1-708-1406","TEMP","Temperature",98,"F"
"STUDY1","STUDY1-708-1406","TEMP","Temperature",98.5,"F"
"STUDY1","STUDY1-708-1406","TEMP","Temperature",98.5,"F"
"STUDY1","STUDY1-708-1406","TEMP","Temperature",97.6,"F"
"STUDY1","STUDY1-708-1406","TEMP","Temperature",98,"F"
"STUDY1","STUDY1-708-1406","TEMP","Temperature",98.2,"F"
"STUDY1","STUDY1-708-1406","TEMP","Temperature",98,"F"
"STUDY1","STUDY1-708-1406","TEMP","Temperature",97.4,"F"
"STUDY1","STUDY1-708-1406","TEMP","Temperature",98,"F"
"STUDY1","STUDY1-708-1406","TEMP","Temperature",98.3,"F"
"STUDY1","STUDY1-708-1406","TEMP","Temperature",98.9,"F"
"STUDY1","STUDY1-708-1406","TEMP","Temperature",100.5,"F"
"STUDY1","STUDY1-708-1406","TEMP","Temperature",99.5,"F"
"STUDY1","STUDY1-708-1406","TEMP","Temperature",97.8,"F"
"STUDY1","STUDY1-708-1428","TEMP","Temperature",98.1,"F"
"STUDY1","STUDY1-708-1428","TEMP","Temperature",97.5,"F"
"STUDY1","STUDY1-708-1428","TEMP","Temperature",98,"F"
"STUDY1","STUDY1-708-1428","TEMP","Temperature",97.8,"F"
"STUDY1","STUDY1-708-1428","TEMP","Temperature",97.7,"F"
"STUDY1","STUDY1-708-1428","TEMP","Temperature",97.4,"F"
"STUDY1","STUDY1-708-1428","TEMP","Temperature",97.6,"F"
"STUDY1","STUDY1-708-1428","TEMP","Temperature",98.2,"F"
"STUDY1","STUDY1-708-1428","TEMP","Temperature",98.5,"F"
"STUDY1","STUDY1-709-1001","TEMP","Temperature",98.2,"F"
"STUDY1","STUDY1-709-1001","TEMP","Temperature",98.1,"F"
"STUDY1","STUDY1-709-1001","TEMP","Temperature",97.3,"F"
"STUDY1","STUDY1-709-1001","TEMP","Temperature",96.9,"F"
"STUDY1","STUDY1-709-1001","TEMP","Temperature",96.9,"F"
"STUDY1","STUDY1-709-1001","TEMP","Temperature",98,"F"
"STUDY1","STUDY1-709-1001","TEMP","Temperature",98.5,"F"
"STUDY1","STUDY1-709-1001","TEMP","Temperature",98.2,"F"
"STUDY1","STUDY1-709-1001","TEMP","Temperature",98,"F"
"STUDY1","STUDY1-709-1001","TEMP","Temperature",97.1,"F"
"STUDY1","STUDY1-709-1001","TEMP","Temperature",99.2,"F"
"STUDY1","STUDY1-709-1001","TEMP","Temperature",98.1,"F"
"STUDY1","STUDY1-709-1001","TEMP","Temperature",98,"F"
"STUDY1","STUDY1-709-1007","TEMP","Temperature",96.3,"F"
"STUDY1","STUDY1-709-1007","TEMP","Temperature",95.6,"F"
"STUDY1","STUDY1-709-1007","TEMP","Temperature",95.8,"F"
"STUDY1","STUDY1-709-1007","TEMP","Temperature",96,"F"
"STUDY1","STUDY1-709-1007","TEMP","Temperature",96.7,"F"
"STUDY1","STUDY1-709-1007","TEMP","Temperature",96.4,"F"
"STUDY1","STUDY1-709-1020","TEMP","Temperature",97.9,"F"
"STUDY1","STUDY1-709-1020","TEMP","Temperature",97.8,"F"
"STUDY1","STUDY1-709-1020","TEMP","Temperature",98.1,"F"
"STUDY1","STUDY1-709-1020","TEMP","Temperature",96.8,"F"
"STUDY1","STUDY1-709-1020","TEMP","Temperature",97.7,"F"
"STUDY1","STUDY1-709-1020","TEMP","Temperature",98,"F"
"STUDY1","STUDY1-709-1020","TEMP","Temperature",96.7,"F"
"STUDY1","STUDY1-709-1020","TEMP","Temperature",97.5,"F"
"STUDY1","STUDY1-709-1020","TEMP","Temperature",97.3,"F"
"STUDY1","STUDY1-709-1020","TEMP","Temperature",97.9,"F"
"STUDY1","STUDY1-709-1020","TEMP","Temperature",97.7,"F"
"STUDY1","STUDY1-709-1029","TEMP","Temperature",97.5,"F"
"STUDY1","STUDY1-709-1029","TEMP","Temperature",96.2,"F"
"STUDY1","STUDY1-709-1029","TEMP","Temperature",96.7,"F"
"STUDY1","STUDY1-709-1029","TEMP","Temperature",97.1,"F"
"STUDY1","STUDY1-709-1029","TEMP","Temperature",96.8,"F"
"STUDY1","STUDY1-709-1029","TEMP","Temperature",97,"F"
"STUDY1","STUDY1-709-1029","TEMP","Temperature",96.9,"F"
"STUDY1","STUDY1-709-1029","TEMP","Temperature",97.3,"F"
"STUDY1","STUDY1-709-1029","TEMP","Temperature",97.9,"F"
"STUDY1","STUDY1-709-1029","TEMP","Temperature",98.6,"F"
"STUDY1","STUDY1-709-1029","TEMP","Temperature",97.2,"F"
"STUDY1","STUDY1-709-1029","TEMP","Temperature",96.9,"F"
"STUDY1","STUDY1-709-1029","TEMP","Temperature",98.2,"F"
"STUDY1","STUDY1-709-1081","TEMP","Temperature",98,"F"
"STUDY1","STUDY1-709-1081","TEMP","Temperature",96.5,"F"
"STUDY1","STUDY1-709-1081","TEMP","Temperature",97.7,"F"
"STUDY1","STUDY1-709-1081","TEMP","Temperature",97.2,"F"
"STUDY1","STUDY1-709-1081","TEMP","Temperature",97.1,"F"
"STUDY1","STUDY1-709-1081","TEMP","Temperature",97.8,"F"
"STUDY1","STUDY1-709-1081","TEMP","Temperature",97,"F"
"STUDY1","STUDY1-709-1081","TEMP","Temperature",98.3,"F"
"STUDY1","STUDY1-709-1081","TEMP","Temperature",98.1,"F"
"STUDY1","STUDY1-709-1081","TEMP","Temperature",97.1,"F"
"STUDY1","STUDY1-709-1088","TEMP","Temperature",96.6,"F"
"STUDY1","STUDY1-709-1088","TEMP","Temperature",95.4,"F"
"STUDY1","STUDY1-709-1088","TEMP","Temperature",97.3,"F"
"STUDY1","STUDY1-709-1088","TEMP","Temperature",96.7,"F"
"STUDY1","STUDY1-709-1088","TEMP","Temperature",96.7,"F"
"STUDY1","STUDY1-709-1088","TEMP","Temperature",97.4,"F"
"STUDY1","STUDY1-709-1088","TEMP","Temperature",96.8,"F"
"STUDY1","STUDY1-709-1088","TEMP","Temperature",96.8,"F"
"STUDY1","STUDY1-709-1088","TEMP","Temperature",96.9,"F"
"STUDY1","STUDY1-709-1088","TEMP","Temperature",97.4,"F"
"STUDY1","STUDY1-709-1088","TEMP","Temperature",98.3,"F"
"STUDY1","STUDY1-709-1088","TEMP","Temperature",97.1,"F"
"STUDY1","STUDY1-709-1088","TEMP","Temperature",97.5,"F"
"STUDY1","STUDY1-709-1099","TEMP","Temperature",97.8,"F"
"STUDY1","STUDY1-709-1099","TEMP","Temperature",98.1,"F"
"STUDY1","STUDY1-709-1099","TEMP","Temperature",98.6,"F"
"STUDY1","STUDY1-709-1099","TEMP","Temperature",97.8,"F"
"STUDY1","STUDY1-709-1099","TEMP","Temperature",99.3,"F"
"STUDY1","STUDY1-709-1099","TEMP","Temperature",99.1,"F"
"STUDY1","STUDY1-709-1099","TEMP","Temperature",97.9,"F"
"STUDY1","STUDY1-709-1099","TEMP","Temperature",97.9,"F"
"STUDY1","STUDY1-709-1099","TEMP","Temperature",98.2,"F"
"STUDY1","STUDY1-709-1099","TEMP","Temperature",98.4,"F"
"STUDY1","STUDY1-709-1099","TEMP","Temperature",97.6,"F"
"STUDY1","STUDY1-709-1099","TEMP","Temperature",97.8,"F"
"STUDY1","STUDY1-709-1099","TEMP","Temperature",98.7,"F"
"STUDY1","STUDY1-709-1099","TEMP","Temperature",97.9,"F"
"STUDY1","STUDY1-709-1102","TEMP","Temperature",98.5,"F"
"STUDY1","STUDY1-709-1102","TEMP","Temperature",98,"F"
"STUDY1","STUDY1-709-1102","TEMP","Temperature",98,"F"
"STUDY1","STUDY1-709-1102","TEMP","Temperature",97,"F"
"STUDY1","STUDY1-709-1102","TEMP","Temperature",97.7,"F"
"STUDY1","STUDY1-709-1102","TEMP","Temperature",97.8,"F"
"STUDY1","STUDY1-709-1102","TEMP","Temperature",98.3,"F"
"STUDY1","STUDY1-709-1102","TEMP","Temperature",97.4,"F"
"STUDY1","STUDY1-709-1102","TEMP","Temperature",97.5,"F"
"STUDY1","STUDY1-709-1168","TEMP","Temperature",97.4,"F"
"STUDY1","STUDY1-709-1168","TEMP","Temperature",97.2,"F"
"STUDY1","STUDY1-709-1168","TEMP","Temperature",97.9,"F"
"STUDY1","STUDY1-709-1168","TEMP","Temperature",98.3,"F"
"STUDY1","STUDY1-709-1168","TEMP","Temperature",98.4,"F"
"STUDY1","STUDY1-709-1168","TEMP","Temperature",97.7,"F"
"STUDY1","STUDY1-709-1168","TEMP","Temperature",98.1,"F"
"STUDY1","STUDY1-709-1168","TEMP","Temperature",97.5,"F"
"STUDY1","STUDY1-709-1217","TEMP","Temperature",96.9,"F"
"STUDY1","STUDY1-709-1217","TEMP","Temperature",96.1,"F"
"STUDY1","STUDY1-709-1217","TEMP","Temperature",95.9,"F"
"STUDY1","STUDY1-709-1217","TEMP","Temperature",95.7,"F"
"STUDY1","STUDY1-709-1217","TEMP","Temperature",97,"F"
"STUDY1","STUDY1-709-1217","TEMP","Temperature",97,"F"
"STUDY1","STUDY1-709-1217","TEMP","Temperature",97,"F"
"STUDY1","STUDY1-709-1217","TEMP","Temperature",96.8,"F"
"STUDY1","STUDY1-709-1217","TEMP","Temperature",96.8,"F"
"STUDY1","STUDY1-709-1217","TEMP","Temperature",95.5,"F"
"STUDY1","STUDY1-709-1217","TEMP","Temperature",96.4,"F"
"STUDY1","STUDY1-709-1238","TEMP","Temperature",97.3,"F"
"STUDY1","STUDY1-709-1238","TEMP","Temperature",98.1,"F"
"STUDY1","STUDY1-709-1238","TEMP","Temperature",98.5,"F"
"STUDY1","STUDY1-709-1238","TEMP","Temperature",98.8,"F"
"STUDY1","STUDY1-709-1238","TEMP","Temperature",98.6,"F"
"STUDY1","STUDY1-709-1238","TEMP","Temperature",98.6,"F"
"STUDY1","STUDY1-709-1238","TEMP","Temperature",98.3,"F"
"STUDY1","STUDY1-709-1238","TEMP","Temperature",98.1,"F"
"STUDY1","STUDY1-709-1238","TEMP","Temperature",98.6,"F"
"STUDY1","STUDY1-709-1259","TEMP","Temperature",98.6,"F"
"STUDY1","STUDY1-709-1259","TEMP","Temperature",97.2,"F"
"STUDY1","STUDY1-709-1259","TEMP","Temperature",98.4,"F"
"STUDY1","STUDY1-709-1259","TEMP","Temperature",97.9,"F"
"STUDY1","STUDY1-709-1259","TEMP","Temperature",97.4,"F"
"STUDY1","STUDY1-709-1259","TEMP","Temperature",98,"F"
"STUDY1","STUDY1-709-1259","TEMP","Temperature",98.5,"F"
"STUDY1","STUDY1-709-1259","TEMP","Temperature",97.9,"F"
"STUDY1","STUDY1-709-1259","TEMP","Temperature",97.8,"F"
"STUDY1","STUDY1-709-1259","TEMP","Temperature",99.1,"F"
"STUDY1","STUDY1-709-1259","TEMP","Temperature",98.5,"F"
"STUDY1","STUDY1-709-1259","TEMP","Temperature",98.4,"F"
"STUDY1","STUDY1-709-1285","TEMP","Temperature",97.3,"F"
"STUDY1","STUDY1-709-1285","TEMP","Temperature",98.4,"F"
"STUDY1","STUDY1-709-1285","TEMP","Temperature",98,"F"
"STUDY1","STUDY1-709-1285","TEMP","Temperature",97.5,"F"
"STUDY1","STUDY1-709-1285","TEMP","Temperature",97.7,"F"
"STUDY1","STUDY1-709-1285","TEMP","Temperature",97.9,"F"
"STUDY1","STUDY1-709-1285","TEMP","Temperature",97.3,"F"
"STUDY1","STUDY1-709-1285","TEMP","Temperature",97.3,"F"
"STUDY1","STUDY1-709-1285","TEMP","Temperature",98.6,"F"
"STUDY1","STUDY1-709-1285","TEMP","Temperature",96.5,"F"
"STUDY1","STUDY1-709-1301","TEMP","Temperature",96.7,"F"
"STUDY1","STUDY1-709-1301","TEMP","Temperature",95.9,"F"
"STUDY1","STUDY1-709-1301","TEMP","Temperature",98.2,"F"
"STUDY1","STUDY1-709-1301","TEMP","Temperature",97.2,"F"
"STUDY1","STUDY1-709-1301","TEMP","Temperature",96.6,"F"
"STUDY1","STUDY1-709-1301","TEMP","Temperature",96.1,"F"
"STUDY1","STUDY1-709-1301","TEMP","Temperature",97.7,"F"
"STUDY1","STUDY1-709-1301","TEMP","Temperature",97.7,"F"
"STUDY1","STUDY1-709-1301","TEMP","Temperature",97.1,"F"
"STUDY1","STUDY1-709-1301","TEMP","Temperature",98.3,"F"
"STUDY1","STUDY1-709-1301","TEMP","Temperature",97.5,"F"
"STUDY1","STUDY1-709-1301","TEMP","Temperature",96.7,"F"
"STUDY1","STUDY1-709-1301","TEMP","Temperature",97.2,"F"
"STUDY1","STUDY1-709-1306","TEMP","Temperature",97.4,"F"
"STUDY1","STUDY1-709-1306","TEMP","Temperature",96.7,"F"
"STUDY1","STUDY1-709-1306","TEMP","Temperature",98,"F"
"STUDY1","STUDY1-709-1306","TEMP","Temperature",97.8,"F"
"STUDY1","STUDY1-709-1306","TEMP","Temperature",97.4,"F"
"STUDY1","STUDY1-709-1306","TEMP","Temperature",98.1,"F"
"STUDY1","STUDY1-709-1306","TEMP","Temperature",97.6,"F"
"STUDY1","STUDY1-709-1306","TEMP","Temperature",97.8,"F"
"STUDY1","STUDY1-709-1306","TEMP","Temperature",98.4,"F"
"STUDY1","STUDY1-709-1306","TEMP","Temperature",97.9,"F"
"STUDY1","STUDY1-709-1306","TEMP","Temperature",96.4,"F"
"STUDY1","STUDY1-709-1306","TEMP","Temperature",97.6,"F"
"STUDY1","STUDY1-709-1309","TEMP","Temperature",97.8,"F"
"STUDY1","STUDY1-709-1309","TEMP","Temperature",97.7,"F"
"STUDY1","STUDY1-709-1309","TEMP","Temperature",97.6,"F"
"STUDY1","STUDY1-709-1309","TEMP","Temperature",97.5,"F"
"STUDY1","STUDY1-709-1309","TEMP","Temperature",96.3,"F"
"STUDY1","STUDY1-709-1309","TEMP","Temperature",97.7,"F"
"STUDY1","STUDY1-709-1309","TEMP","Temperature",96.9,"F"
"STUDY1","STUDY1-709-1309","TEMP","Temperature",97.6,"F"
"STUDY1","STUDY1-709-1309","TEMP","Temperature",96.5,"F"
"STUDY1","STUDY1-709-1309","TEMP","Temperature",98.1,"F"
"STUDY1","STUDY1-709-1309","TEMP","Temperature",96.8,"F"
"STUDY1","STUDY1-709-1309","TEMP","Temperature",98,"F"
"STUDY1","STUDY1-709-1309","TEMP","Temperature",97.8,"F"
"STUDY1","STUDY1-709-1309","TEMP","Temperature",97.7,"F"
"STUDY1","STUDY1-709-1312","TEMP","Temperature",98.1,"F"
"STUDY1","STUDY1-709-1312","TEMP","Temperature",98.1,"F"
"STUDY1","STUDY1-709-1312","TEMP","Temperature",98.8,"F"
"STUDY1","STUDY1-709-1312","TEMP","Temperature",99.2,"F"
"STUDY1","STUDY1-709-1312","TEMP","Temperature",97.9,"F"
"STUDY1","STUDY1-709-1312","TEMP","Temperature",98,"F"
"STUDY1","STUDY1-709-1312","TEMP","Temperature",97.9,"F"
"STUDY1","STUDY1-709-1312","TEMP","Temperature",97.7,"F"
"STUDY1","STUDY1-709-1312","TEMP","Temperature",97,"F"
"STUDY1","STUDY1-709-1312","TEMP","Temperature",98,"F"
"STUDY1","STUDY1-709-1312","TEMP","Temperature",98.5,"F"
"STUDY1","STUDY1-709-1312","TEMP","Temperature",98.2,"F"
"STUDY1","STUDY1-709-1326","TEMP","Temperature",98.2,"F"
"STUDY1","STUDY1-709-1326","TEMP","Temperature",98.8,"F"
"STUDY1","STUDY1-709-1326","TEMP","Temperature",98.3,"F"
"STUDY1","STUDY1-709-1326","TEMP","Temperature",98.6,"F"
"STUDY1","STUDY1-709-1326","TEMP","Temperature",98.5,"F"
"STUDY1","STUDY1-709-1326","TEMP","Temperature",98.5,"F"
"STUDY1","STUDY1-709-1326","TEMP","Temperature",97.6,"F"
"STUDY1","STUDY1-709-1326","TEMP","Temperature",98.5,"F"
"STUDY1","STUDY1-709-1326","TEMP","Temperature",98.6,"F"
"STUDY1","STUDY1-709-1326","TEMP","Temperature",98.4,"F"
"STUDY1","STUDY1-709-1326","TEMP","Temperature",98.6,"F"
"STUDY1","STUDY1-709-1326","TEMP","Temperature",97.2,"F"
"STUDY1","STUDY1-709-1326","TEMP","Temperature",98.4,"F"
"STUDY1","STUDY1-709-1329","TEMP","Temperature",97,"F"
"STUDY1","STUDY1-709-1329","TEMP","Temperature",95.8,"F"
"STUDY1","STUDY1-709-1329","TEMP","Temperature",96.1,"F"
"STUDY1","STUDY1-709-1329","TEMP","Temperature",97.9,"F"
"STUDY1","STUDY1-709-1339","TEMP","Temperature",97.3,"F"
"STUDY1","STUDY1-709-1339","TEMP","Temperature",97.3,"F"
"STUDY1","STUDY1-709-1339","TEMP","Temperature",95.6,"F"
"STUDY1","STUDY1-709-1339","TEMP","Temperature",97.2,"F"
"STUDY1","STUDY1-709-1339","TEMP","Temperature",97.6,"F"
"STUDY1","STUDY1-709-1339","TEMP","Temperature",97,"F"
"STUDY1","STUDY1-709-1339","TEMP","Temperature",97.8,"F"
"STUDY1","STUDY1-709-1339","TEMP","Temperature",97.5,"F"
"STUDY1","STUDY1-709-1339","TEMP","Temperature",96.6,"F"
"STUDY1","STUDY1-709-1339","TEMP","Temperature",97.6,"F"
"STUDY1","STUDY1-709-1339","TEMP","Temperature",97.7,"F"
"STUDY1","STUDY1-709-1339","TEMP","Temperature",97.5,"F"
"STUDY1","STUDY1-709-1339","TEMP","Temperature",97.7,"F"
"STUDY1","STUDY1-709-1339","TEMP","Temperature",98,"F"
"STUDY1","STUDY1-709-1424","TEMP","Temperature",97.6,"F"
"STUDY1","STUDY1-709-1424","TEMP","Temperature",95.5,"F"
"STUDY1","STUDY1-709-1424","TEMP","Temperature",97.5,"F"
"STUDY1","STUDY1-709-1424","TEMP","Temperature",98.1,"F"
"STUDY1","STUDY1-710-1002","TEMP","Temperature",98.6,"F"
"STUDY1","STUDY1-710-1002","TEMP","Temperature",98.6,"F"
"STUDY1","STUDY1-710-1002","TEMP","Temperature",98.6,"F"
"STUDY1","STUDY1-710-1002","TEMP","Temperature",98.6,"F"
"STUDY1","STUDY1-710-1006","TEMP","Temperature",98.4,"F"
"STUDY1","STUDY1-710-1006","TEMP","Temperature",98.6,"F"
"STUDY1","STUDY1-710-1006","TEMP","Temperature",98.6,"F"
"STUDY1","STUDY1-710-1006","TEMP","Temperature",98.6,"F"
"STUDY1","STUDY1-710-1006","TEMP","Temperature",98.6,"F"
"STUDY1","STUDY1-710-1006","TEMP","Temperature",98.4,"F"
"STUDY1","STUDY1-710-1006","TEMP","Temperature",98.6,"F"
"STUDY1","STUDY1-710-1006","TEMP","Temperature",98.6,"F"
"STUDY1","STUDY1-710-1006","TEMP","Temperature",98.6,"F"
"STUDY1","STUDY1-710-1006","TEMP","Temperature",98.6,"F"
"STUDY1","STUDY1-710-1006","TEMP","Temperature",98.6,"F"
"STUDY1","STUDY1-710-1006","TEMP","Temperature",98.6,"F"
"STUDY1","STUDY1-710-1006","TEMP","Temperature",98.4,"F"
"STUDY1","STUDY1-710-1006","TEMP","Temperature",98.6,"F"
"STUDY1","STUDY1-710-1021","TEMP","Temperature",98.4,"F"
"STUDY1","STUDY1-710-1021","TEMP","Temperature",98.6,"F"
"STUDY1","STUDY1-710-1021","TEMP","Temperature",98.6,"F"
"STUDY1","STUDY1-710-1021","TEMP","Temperature",98.4,"F"
"STUDY1","STUDY1-710-1021","TEMP","Temperature",98.6,"F"
"STUDY1","STUDY1-710-1021","TEMP","Temperature",98.6,"F"
"STUDY1","STUDY1-710-1021","TEMP","Temperature",98.6,"F"
"STUDY1","STUDY1-710-1021","TEMP","Temperature",98.6,"F"
"STUDY1","STUDY1-710-1027","TEMP","Temperature",98.6,"F"
"STUDY1","STUDY1-710-1027","TEMP","Temperature",98.6,"F"
"STUDY1","STUDY1-710-1027","TEMP","Temperature",98.6,"F"
"STUDY1","STUDY1-710-1027","TEMP","Temperature",98.6,"F"
"STUDY1","STUDY1-710-1027","TEMP","Temperature",98.6,"F"
"STUDY1","STUDY1-710-1027","TEMP","Temperature",98.6,"F"
"STUDY1","STUDY1-710-1027","TEMP","Temperature",98.6,"F"
"STUDY1","STUDY1-710-1027","TEMP","Temperature",98.6,"F"
"STUDY1","STUDY1-710-1027","TEMP","Temperature",98.6,"F"
"STUDY1","STUDY1-710-1027","TEMP","Temperature",98.6,"F"
"STUDY1","STUDY1-710-1027","TEMP","Temperature",98.6,"F"
"STUDY1","STUDY1-710-1027","TEMP","Temperature",98.6,"F"
"STUDY1","STUDY1-710-1045","TEMP","Temperature",98.4,"F"
"STUDY1","STUDY1-710-1045","TEMP","Temperature",98.4,"F"
"STUDY1","STUDY1-710-1045","TEMP","Temperature",98.4,"F"
"STUDY1","STUDY1-710-1045","TEMP","Temperature",98.6,"F"
"STUDY1","STUDY1-710-1045","TEMP","Temperature",98.4,"F"
"STUDY1","STUDY1-710-1045","TEMP","Temperature",98.4,"F"
"STUDY1","STUDY1-710-1045","TEMP","Temperature",98.4,"F"
"STUDY1","STUDY1-710-1045","TEMP","Temperature",98.6,"F"
"STUDY1","STUDY1-710-1045","TEMP","Temperature",98.4,"F"
"STUDY1","STUDY1-710-1045","TEMP","Temperature",98.4,"F"
"STUDY1","STUDY1-710-1053","TEMP","Temperature",98.4,"F"
"STUDY1","STUDY1-710-1053","TEMP","Temperature",98.6,"F"
"STUDY1","STUDY1-710-1053","TEMP","Temperature",98.6,"F"
"STUDY1","STUDY1-710-1053","TEMP","Temperature",98.6,"F"
"STUDY1","STUDY1-710-1053","TEMP","Temperature",98.4,"F"
"STUDY1","STUDY1-710-1053","TEMP","Temperature",98.4,"F"
"STUDY1","STUDY1-710-1053","TEMP","Temperature",98.5,"F"
"STUDY1","STUDY1-710-1053","TEMP","Temperature",98.4,"F"
"STUDY1","STUDY1-710-1053","TEMP","Temperature",98.4,"F"
"STUDY1","STUDY1-710-1060","TEMP","Temperature",98.6,"F"
"STUDY1","STUDY1-710-1060","TEMP","Temperature",98.6,"F"
"STUDY1","STUDY1-710-1060","TEMP","Temperature",98.6,"F"
"STUDY1","STUDY1-710-1060","TEMP","Temperature",98.6,"F"
"STUDY1","STUDY1-710-1060","TEMP","Temperature",98.6,"F"
"STUDY1","STUDY1-710-1060","TEMP","Temperature",98.6,"F"
"STUDY1","STUDY1-710-1060","TEMP","Temperature",98.6,"F"
"STUDY1","STUDY1-710-1060","TEMP","Temperature",98.6,"F"
"STUDY1","STUDY1-710-1060","TEMP","Temperature",98.4,"F"
"STUDY1","STUDY1-710-1060","TEMP","Temperature",98.6,"F"
"STUDY1","STUDY1-710-1060","TEMP","Temperature",98.6,"F"
"STUDY1","STUDY1-710-1060","TEMP","Temperature",98.6,"F"
"STUDY1","STUDY1-710-1060","TEMP","Temperature",98.6,"F"
"STUDY1","STUDY1-710-1060","TEMP","Temperature",98.6,"F"
"STUDY1","STUDY1-710-1070","TEMP","Temperature",98.4,"F"
"STUDY1","STUDY1-710-1070","TEMP","Temperature",98.4,"F"
"STUDY1","STUDY1-710-1070","TEMP","Temperature",98.6,"F"
"STUDY1","STUDY1-710-1070","TEMP","Temperature",98.4,"F"
"STUDY1","STUDY1-710-1070","TEMP","Temperature",98.4,"F"
"STUDY1","STUDY1-710-1070","TEMP","Temperature",98.4,"F"
"STUDY1","STUDY1-710-1070","TEMP","Temperature",98.6,"F"
"STUDY1","STUDY1-710-1070","TEMP","Temperature",98.4,"F"
"STUDY1","STUDY1-710-1070","TEMP","Temperature",98.4,"F"
"STUDY1","STUDY1-710-1070","TEMP","Temperature",98.4,"F"
"STUDY1","STUDY1-710-1077","TEMP","Temperature",98.4,"F"
"STUDY1","STUDY1-710-1077","TEMP","Temperature",98.4,"F"
"STUDY1","STUDY1-710-1077","TEMP","Temperature",98.4,"F"
"STUDY1","STUDY1-710-1077","TEMP","Temperature",98.4,"F"
"STUDY1","STUDY1-710-1077","TEMP","Temperature",98.4,"F"
"STUDY1","STUDY1-710-1077","TEMP","Temperature",98.4,"F"
"STUDY1","STUDY1-710-1077","TEMP","Temperature",98.4,"F"
"STUDY1","STUDY1-710-1077","TEMP","Temperature",98.6,"F"
"STUDY1","STUDY1-710-1077","TEMP","Temperature",98.6,"F"
"STUDY1","STUDY1-710-1077","TEMP","Temperature",98.6,"F"
"STUDY1","STUDY1-710-1077","TEMP","Temperature",98.4,"F"
"STUDY1","STUDY1-710-1077","TEMP","Temperature",98.4,"F"
"STUDY1","STUDY1-710-1077","TEMP","Temperature",98.6,"F"
"STUDY1","STUDY1-710-1078","TEMP","Temperature",98.4,"F"
"STUDY1","STUDY1-710-1078","TEMP","Temperature",98.4,"F"
"STUDY1","STUDY1-710-1078","TEMP","Temperature",98.4,"F"
"STUDY1","STUDY1-710-1078","TEMP","Temperature",98.4,"F"
"STUDY1","STUDY1-710-1078","TEMP","Temperature",98.4,"F"
"STUDY1","STUDY1-710-1078","TEMP","Temperature",98.4,"F"
"STUDY1","STUDY1-710-1078","TEMP","Temperature",98.6,"F"
"STUDY1","STUDY1-710-1078","TEMP","Temperature",98.4,"F"
"STUDY1","STUDY1-710-1078","TEMP","Temperature",98.4,"F"
"STUDY1","STUDY1-710-1078","TEMP","Temperature",98.6,"F"
"STUDY1","STUDY1-710-1078","TEMP","Temperature",98.4,"F"
"STUDY1","STUDY1-710-1078","TEMP","Temperature",98.4,"F"
"STUDY1","STUDY1-710-1078","TEMP","Temperature",98.6,"F"
"STUDY1","STUDY1-710-1078","TEMP","Temperature",98.6,"F"
"STUDY1","STUDY1-710-1083","TEMP","Temperature",98.6,"F"
"STUDY1","STUDY1-710-1083","TEMP","Temperature",98.6,"F"
"STUDY1","STUDY1-710-1083","TEMP","Temperature",98.4,"F"
"STUDY1","STUDY1-710-1137","TEMP","Temperature",98.6,"F"
"STUDY1","STUDY1-710-1137","TEMP","Temperature",98.6,"F"
"STUDY1","STUDY1-710-1137","TEMP","Temperature",98.6,"F"
"STUDY1","STUDY1-710-1137","TEMP","Temperature",98.6,"F"
"STUDY1","STUDY1-710-1137","TEMP","Temperature",98.4,"F"
"STUDY1","STUDY1-710-1137","TEMP","Temperature",98.4,"F"
"STUDY1","STUDY1-710-1137","TEMP","Temperature",98.6,"F"
"STUDY1","STUDY1-710-1137","TEMP","Temperature",98.6,"F"
"STUDY1","STUDY1-710-1142","TEMP","Temperature",98.4,"F"
"STUDY1","STUDY1-710-1142","TEMP","Temperature",98.6,"F"
"STUDY1","STUDY1-710-1142","TEMP","Temperature",98.6,"F"
"STUDY1","STUDY1-710-1142","TEMP","Temperature",98.4,"F"
"STUDY1","STUDY1-710-1142","TEMP","Temperature",98.4,"F"
"STUDY1","STUDY1-710-1142","TEMP","Temperature",98.4,"F"
"STUDY1","STUDY1-710-1154","TEMP","Temperature",98.6,"F"
"STUDY1","STUDY1-710-1154","TEMP","Temperature",98.6,"F"
"STUDY1","STUDY1-710-1154","TEMP","Temperature",98.6,"F"
"STUDY1","STUDY1-710-1154","TEMP","Temperature",98.6,"F"
"STUDY1","STUDY1-710-1154","TEMP","Temperature",98.6,"F"
"STUDY1","STUDY1-710-1154","TEMP","Temperature",98.6,"F"
"STUDY1","STUDY1-710-1166","TEMP","Temperature",98.6,"F"
"STUDY1","STUDY1-710-1166","TEMP","Temperature",98.6,"F"
"STUDY1","STUDY1-710-1166","TEMP","Temperature",98.6,"F"
"STUDY1","STUDY1-710-1166","TEMP","Temperature",98.6,"F"
"STUDY1","STUDY1-710-1166","TEMP","Temperature",98.6,"F"
"STUDY1","STUDY1-710-1166","TEMP","Temperature",98.6,"F"
"STUDY1","STUDY1-710-1166","TEMP","Temperature",98.6,"F"
"STUDY1","STUDY1-710-1166","TEMP","Temperature",98.4,"F"
"STUDY1","STUDY1-710-1166","TEMP","Temperature",98.4,"F"
"STUDY1","STUDY1-710-1166","TEMP","Temperature",98.6,"F"
"STUDY1","STUDY1-710-1166","TEMP","Temperature",98.4,"F"
"STUDY1","STUDY1-710-1183","TEMP","Temperature",98.6,"F"
"STUDY1","STUDY1-710-1183","TEMP","Temperature",98.4,"F"
"STUDY1","STUDY1-710-1183","TEMP","Temperature",98.6,"F"
"STUDY1","STUDY1-710-1183","TEMP","Temperature",98.4,"F"
"STUDY1","STUDY1-710-1183","TEMP","Temperature",98.4,"F"
"STUDY1","STUDY1-710-1183","TEMP","Temperature",98.4,"F"
"STUDY1","STUDY1-710-1183","TEMP","Temperature",98.4,"F"
"STUDY1","STUDY1-710-1183","TEMP","Temperature",98.4,"F"
"STUDY1","STUDY1-710-1183","TEMP","Temperature",98.4,"F"
"STUDY1","STUDY1-710-1183","TEMP","Temperature",98.4,"F"
"STUDY1","STUDY1-710-1183","TEMP","Temperature",98.4,"F"
"STUDY1","STUDY1-710-1183","TEMP","Temperature",98.6,"F"
"STUDY1","STUDY1-710-1183","TEMP","Temperature",98.6,"F"
"STUDY1","STUDY1-710-1183","TEMP","Temperature",98.6,"F"
"STUDY1","STUDY1-710-1187","TEMP","Temperature",98.6,"F"
"STUDY1","STUDY1-710-1187","TEMP","Temperature",98.4,"F"
"STUDY1","STUDY1-710-1187","TEMP","Temperature",98.4,"F"
"STUDY1","STUDY1-710-1187","TEMP","Temperature",98.4,"F"
"STUDY1","STUDY1-710-1187","TEMP","Temperature",98.6,"F"
"STUDY1","STUDY1-710-1187","TEMP","Temperature",98.4,"F"
"STUDY1","STUDY1-710-1187","TEMP","Temperature",98.4,"F"
"STUDY1","STUDY1-710-1187","TEMP","Temperature",98.4,"F"
"STUDY1","STUDY1-710-1187","TEMP","Temperature",98.4,"F"
"STUDY1","STUDY1-710-1187","TEMP","Temperature",98.4,"F"
"STUDY1","STUDY1-710-1187","TEMP","Temperature",98.6,"F"
"STUDY1","STUDY1-710-1187","TEMP","Temperature",98.4,"F"
"STUDY1","STUDY1-710-1187","TEMP","Temperature",98.4,"F"
"STUDY1","STUDY1-710-1235","TEMP","Temperature",98.6,"F"
"STUDY1","STUDY1-710-1235","TEMP","Temperature",98.6,"F"
"STUDY1","STUDY1-710-1235","TEMP","Temperature",98.6,"F"
"STUDY1","STUDY1-710-1235","TEMP","Temperature",98.6,"F"
"STUDY1","STUDY1-710-1235","TEMP","Temperature",98.6,"F"
"STUDY1","STUDY1-710-1235","TEMP","Temperature",98.6,"F"
"STUDY1","STUDY1-710-1235","TEMP","Temperature",98.6,"F"
"STUDY1","STUDY1-710-1235","TEMP","Temperature",98.6,"F"
"STUDY1","STUDY1-710-1235","TEMP","Temperature",98.6,"F"
"STUDY1","STUDY1-710-1235","TEMP","Temperature",98.6,"F"
"STUDY1","STUDY1-710-1235","TEMP","Temperature",98.6,"F"
"STUDY1","STUDY1-710-1235","TEMP","Temperature",98.6,"F"
"STUDY1","STUDY1-710-1235","TEMP","Temperature",98.6,"F"
"STUDY1","STUDY1-710-1235","TEMP","Temperature",98.6,"F"
"STUDY1","STUDY1-710-1249","TEMP","Temperature",98.6,"F"
"STUDY1","STUDY1-710-1249","TEMP","Temperature",98.6,"F"
"STUDY1","STUDY1-710-1249","TEMP","Temperature",98.6,"F"
"STUDY1","STUDY1-710-1249","TEMP","Temperature",98.6,"F"
"STUDY1","STUDY1-710-1249","TEMP","Temperature",98.6,"F"
"STUDY1","STUDY1-710-1249","TEMP","Temperature",98.6,"F"
"STUDY1","STUDY1-710-1249","TEMP","Temperature",98.6,"F"
"STUDY1","STUDY1-710-1249","TEMP","Temperature",98.4,"F"
"STUDY1","STUDY1-710-1249","TEMP","Temperature",98.6,"F"
"STUDY1","STUDY1-710-1249","TEMP","Temperature",98.6,"F"
"STUDY1","STUDY1-710-1249","TEMP","Temperature",98.6,"F"
"STUDY1","STUDY1-710-1249","TEMP","Temperature",98.6,"F"
"STUDY1","STUDY1-710-1249","TEMP","Temperature",98.6,"F"
"STUDY1","STUDY1-710-1249","TEMP","Temperature",98.6,"F"
"STUDY1","STUDY1-710-1264","TEMP","Temperature",98.6,"F"
"STUDY1","STUDY1-710-1264","TEMP","Temperature",98.6,"F"
"STUDY1","STUDY1-710-1264","TEMP","Temperature",98.6,"F"
"STUDY1","STUDY1-710-1264","TEMP","Temperature",98.6,"F"
"STUDY1","STUDY1-710-1264","TEMP","Temperature",98.6,"F"
"STUDY1","STUDY1-710-1264","TEMP","Temperature",98.6,"F"
"STUDY1","STUDY1-710-1264","TEMP","Temperature",98.6,"F"
"STUDY1","STUDY1-710-1264","TEMP","Temperature",98.6,"F"
"STUDY1","STUDY1-710-1264","TEMP","Temperature",98.6,"F"
"STUDY1","STUDY1-710-1264","TEMP","Temperature",98.6,"F"
"STUDY1","STUDY1-710-1264","TEMP","Temperature",98.6,"F"
"STUDY1","STUDY1-710-1264","TEMP","Temperature",98.4,"F"
"STUDY1","STUDY1-710-1270","TEMP","Temperature",98.6,"F"
"STUDY1","STUDY1-710-1270","TEMP","Temperature",98.4,"F"
"STUDY1","STUDY1-710-1270","TEMP","Temperature",98.4,"F"
"STUDY1","STUDY1-710-1270","TEMP","Temperature",98.6,"F"
"STUDY1","STUDY1-710-1271","TEMP","Temperature",98.6,"F"
"STUDY1","STUDY1-710-1271","TEMP","Temperature",98.4,"F"
"STUDY1","STUDY1-710-1271","TEMP","Temperature",98.4,"F"
"STUDY1","STUDY1-710-1271","TEMP","Temperature",98.4,"F"
"STUDY1","STUDY1-710-1271","TEMP","Temperature",98.4,"F"
"STUDY1","STUDY1-710-1271","TEMP","Temperature",98.4,"F"
"STUDY1","STUDY1-710-1271","TEMP","Temperature",98.4,"F"
"STUDY1","STUDY1-710-1271","TEMP","Temperature",98.4,"F"
"STUDY1","STUDY1-710-1278","TEMP","Temperature",98.6,"F"
"STUDY1","STUDY1-710-1278","TEMP","Temperature",98.6,"F"
"STUDY1","STUDY1-710-1278","TEMP","Temperature",98.6,"F"
"STUDY1","STUDY1-710-1278","TEMP","Temperature",98.6,"F"
"STUDY1","STUDY1-710-1278","TEMP","Temperature",96.6,"F"
"STUDY1","STUDY1-710-1278","TEMP","Temperature",98.6,"F"
"STUDY1","STUDY1-710-1278","TEMP","Temperature",98.6,"F"
"STUDY1","STUDY1-710-1278","TEMP","Temperature",98.6,"F"
"STUDY1","STUDY1-710-1278","TEMP","Temperature",98.6,"F"
"STUDY1","STUDY1-710-1278","TEMP","Temperature",98.6,"F"
"STUDY1","STUDY1-710-1300","TEMP","Temperature",98.4,"F"
"STUDY1","STUDY1-710-1300","TEMP","Temperature",98.4,"F"
"STUDY1","STUDY1-710-1300","TEMP","Temperature",98.4,"F"
"STUDY1","STUDY1-710-1300","TEMP","Temperature",98.4,"F"
"STUDY1","STUDY1-710-1300","TEMP","Temperature",98.4,"F"
"STUDY1","STUDY1-710-1300","TEMP","Temperature",98.4,"F"
"STUDY1","STUDY1-710-1300","TEMP","Temperature",98.6,"F"
"STUDY1","STUDY1-710-1300","TEMP","Temperature",98.4,"F"
"STUDY1","STUDY1-710-1300","TEMP","Temperature",98.4,"F"
"STUDY1","STUDY1-710-1300","TEMP","Temperature",98.6,"F"
"STUDY1","STUDY1-710-1314","TEMP","Temperature",98.4,"F"
"STUDY1","STUDY1-710-1314","TEMP","Temperature",98.4,"F"
"STUDY1","STUDY1-710-1314","TEMP","Temperature",98.6,"F"
"STUDY1","STUDY1-710-1314","TEMP","Temperature",98.6,"F"
"STUDY1","STUDY1-710-1314","TEMP","Temperature",98.4,"F"
"STUDY1","STUDY1-710-1314","TEMP","Temperature",98.4,"F"
"STUDY1","STUDY1-710-1315","TEMP","Temperature",98.6,"F"
"STUDY1","STUDY1-710-1315","TEMP","Temperature",98.6,"F"
"STUDY1","STUDY1-710-1315","TEMP","Temperature",98.4,"F"
"STUDY1","STUDY1-710-1315","TEMP","Temperature",98.4,"F"
"STUDY1","STUDY1-710-1315","TEMP","Temperature",98.6,"F"
"STUDY1","STUDY1-710-1315","TEMP","Temperature",98.6,"F"
"STUDY1","STUDY1-710-1315","TEMP","Temperature",98.4,"F"
"STUDY1","STUDY1-710-1315","TEMP","Temperature",98.4,"F"
"STUDY1","STUDY1-710-1315","TEMP","Temperature",98.6,"F"
"STUDY1","STUDY1-710-1315","TEMP","Temperature",98.4,"F"
"STUDY1","STUDY1-710-1315","TEMP","Temperature",98.4,"F"
"STUDY1","STUDY1-710-1315","TEMP","Temperature",98.4,"F"
"STUDY1","STUDY1-710-1354","TEMP","Temperature",98.6,"F"
"STUDY1","STUDY1-710-1354","TEMP","Temperature",98.6,"F"
"STUDY1","STUDY1-710-1354","TEMP","Temperature",98.6,"F"
"STUDY1","STUDY1-710-1354","TEMP","Temperature",98.6,"F"
"STUDY1","STUDY1-710-1354","TEMP","Temperature",98.6,"F"
"STUDY1","STUDY1-710-1354","TEMP","Temperature",98.6,"F"
"STUDY1","STUDY1-710-1354","TEMP","Temperature",98.6,"F"
"STUDY1","STUDY1-710-1354","TEMP","Temperature",98.6,"F"
"STUDY1","STUDY1-710-1354","TEMP","Temperature",98.6,"F"
"STUDY1","STUDY1-710-1354","TEMP","Temperature",98.6,"F"
"STUDY1","STUDY1-710-1354","TEMP","Temperature",98.6,"F"
"STUDY1","STUDY1-710-1354","TEMP","Temperature",98.6,"F"
"STUDY1","STUDY1-710-1354","TEMP","Temperature",98.6,"F"
"STUDY1","STUDY1-710-1354","TEMP","Temperature",98.6,"F"
"STUDY1","STUDY1-710-1358","TEMP","Temperature",98.6,"F"
"STUDY1","STUDY1-710-1358","TEMP","Temperature",98.6,"F"
"STUDY1","STUDY1-710-1358","TEMP","Temperature",98.6,"F"
"STUDY1","STUDY1-710-1358","TEMP","Temperature",98.6,"F"
"STUDY1","STUDY1-710-1358","TEMP","Temperature",98.6,"F"
"STUDY1","STUDY1-710-1358","TEMP","Temperature",98.6,"F"
"STUDY1","STUDY1-710-1358","TEMP","Temperature",98.6,"F"
"STUDY1","STUDY1-710-1358","TEMP","Temperature",98.6,"F"
"STUDY1","STUDY1-710-1358","TEMP","Temperature",98.6,"F"
"STUDY1","STUDY1-710-1358","TEMP","Temperature",98.6,"F"
"STUDY1","STUDY1-710-1358","TEMP","Temperature",98.6,"F"
"STUDY1","STUDY1-710-1358","TEMP","Temperature",98.6,"F"
"STUDY1","STUDY1-710-1368","TEMP","Temperature",98.4,"F"
"STUDY1","STUDY1-710-1368","TEMP","Temperature",98.4,"F"
"STUDY1","STUDY1-710-1368","TEMP","Temperature",98.4,"F"
"STUDY1","STUDY1-710-1368","TEMP","Temperature",98.4,"F"
"STUDY1","STUDY1-710-1368","TEMP","Temperature",98.4,"F"
"STUDY1","STUDY1-710-1368","TEMP","Temperature",98.4,"F"
"STUDY1","STUDY1-710-1368","TEMP","Temperature",98.4,"F"
"STUDY1","STUDY1-710-1368","TEMP","Temperature",98.4,"F"
"STUDY1","STUDY1-710-1368","TEMP","Temperature",98.4,"F"
"STUDY1","STUDY1-710-1368","TEMP","Temperature",98.4,"F"
"STUDY1","STUDY1-710-1368","TEMP","Temperature",98.4,"F"
"STUDY1","STUDY1-710-1368","TEMP","Temperature",98.4,"F"
"STUDY1","STUDY1-710-1368","TEMP","Temperature",98.4,"F"
"STUDY1","STUDY1-710-1368","TEMP","Temperature",98.4,"F"
"STUDY1","STUDY1-710-1385","TEMP","Temperature",98.6,"F"
"STUDY1","STUDY1-710-1385","TEMP","Temperature",98.6,"F"
"STUDY1","STUDY1-710-1385","TEMP","Temperature",98.6,"F"
"STUDY1","STUDY1-710-1385","TEMP","Temperature",98.6,"F"
"STUDY1","STUDY1-710-1385","TEMP","Temperature",98.6,"F"
"STUDY1","STUDY1-710-1385","TEMP","Temperature",98.6,"F"
"STUDY1","STUDY1-710-1385","TEMP","Temperature",98.6,"F"
"STUDY1","STUDY1-710-1385","TEMP","Temperature",98.6,"F"
"STUDY1","STUDY1-710-1385","TEMP","Temperature",98.6,"F"
"STUDY1","STUDY1-710-1385","TEMP","Temperature",98.6,"F"
"STUDY1","STUDY1-710-1385","TEMP","Temperature",98.6,"F"
"STUDY1","STUDY1-710-1408","TEMP","Temperature",98.4,"F"
"STUDY1","STUDY1-710-1408","TEMP","Temperature",98.6,"F"
"STUDY1","STUDY1-710-1408","TEMP","Temperature",98.6,"F"
"STUDY1","STUDY1-710-1408","TEMP","Temperature",98.6,"F"
"STUDY1","STUDY1-710-1408","TEMP","Temperature",98.4,"F"
"STUDY1","STUDY1-710-1408","TEMP","Temperature",98.6,"F"
"STUDY1","STUDY1-710-1408","TEMP","Temperature",98.6,"F"
"STUDY1","STUDY1-710-1408","TEMP","Temperature",98.6,"F"
"STUDY1","STUDY1-710-1408","TEMP","Temperature",98.6,"F"
"STUDY1","STUDY1-710-1408","TEMP","Temperature",98.6,"F"
"STUDY1","STUDY1-710-1408","TEMP","Temperature",98.6,"F"
"STUDY1","STUDY1-710-1408","TEMP","Temperature",98.6,"F"
"STUDY1","STUDY1-710-1408","TEMP","Temperature",98.6,"F"
"STUDY1","STUDY1-710-1408","TEMP","Temperature",98.6,"F"
"STUDY1","STUDY1-711-1012","TEMP","Temperature",97.6,"F"
"STUDY1","STUDY1-711-1012","TEMP","Temperature",97.4,"F"
"STUDY1","STUDY1-711-1012","TEMP","Temperature",99.4,"F"
"STUDY1","STUDY1-711-1012","TEMP","Temperature",97.5,"F"
"STUDY1","STUDY1-711-1012","TEMP","Temperature",98.4,"F"
"STUDY1","STUDY1-711-1012","TEMP","Temperature",98.6,"F"
"STUDY1","STUDY1-711-1012","TEMP","Temperature",97.1,"F"
"STUDY1","STUDY1-711-1036","TEMP","Temperature",97.8,"F"
"STUDY1","STUDY1-711-1036","TEMP","Temperature",96.1,"F"
"STUDY1","STUDY1-711-1036","TEMP","Temperature",97.1,"F"
"STUDY1","STUDY1-711-1036","TEMP","Temperature",96.9,"F"
"STUDY1","STUDY1-711-1036","TEMP","Temperature",96.7,"F"
"STUDY1","STUDY1-711-1036","TEMP","Temperature",97.5,"F"
"STUDY1","STUDY1-711-1036","TEMP","Temperature",97.5,"F"
"STUDY1","STUDY1-711-1036","TEMP","Temperature",95.9,"F"
"STUDY1","STUDY1-711-1036","TEMP","Temperature",97.2,"F"
"STUDY1","STUDY1-711-1036","TEMP","Temperature",97.4,"F"
"STUDY1","STUDY1-711-1036","TEMP","Temperature",97.2,"F"
"STUDY1","STUDY1-711-1036","TEMP","Temperature",96.1,"F"
"STUDY1","STUDY1-711-1036","TEMP","Temperature",96.1,"F"
"STUDY1","STUDY1-711-1036","TEMP","Temperature",97.4,"F"
"STUDY1","STUDY1-711-1143","TEMP","Temperature",97,"F"
"STUDY1","STUDY1-711-1143","TEMP","Temperature",95.7,"F"
"STUDY1","STUDY1-711-1143","TEMP","Temperature",97.4,"F"
"STUDY1","STUDY1-711-1143","TEMP","Temperature",97.5,"F"
"STUDY1","STUDY1-711-1143","TEMP","Temperature",96.5,"F"
"STUDY1","STUDY1-711-1143","TEMP","Temperature",97.2,"F"
"STUDY1","STUDY1-711-1143","TEMP","Temperature",97.3,"F"
"STUDY1","STUDY1-711-1143","TEMP","Temperature",96.4,"F"
"STUDY1","STUDY1-711-1143","TEMP","Temperature",96.6,"F"
"STUDY1","STUDY1-711-1143","TEMP","Temperature",96.7,"F"
"STUDY1","STUDY1-711-1143","TEMP","Temperature",97.5,"F"
"STUDY1","STUDY1-711-1433","TEMP","Temperature",97.4,"F"
"STUDY1","STUDY1-711-1433","TEMP","Temperature",97.8,"F"
"STUDY1","STUDY1-711-1433","TEMP","Temperature",97.3,"F"
"STUDY1","STUDY1-711-1433","TEMP","Temperature",97,"F"
"STUDY1","STUDY1-713-1043","TEMP","Temperature",97.6,"F"
"STUDY1","STUDY1-713-1043","TEMP","Temperature",98.6,"F"
"STUDY1","STUDY1-713-1043","TEMP","Temperature",97.5,"F"
"STUDY1","STUDY1-713-1043","TEMP","Temperature",99.3,"F"
"STUDY1","STUDY1-713-1043","TEMP","Temperature",97,"F"
"STUDY1","STUDY1-713-1043","TEMP","Temperature",97.8,"F"
"STUDY1","STUDY1-713-1043","TEMP","Temperature",98.6,"F"
"STUDY1","STUDY1-713-1043","TEMP","Temperature",97.9,"F"
"STUDY1","STUDY1-713-1043","TEMP","Temperature",97,"F"
"STUDY1","STUDY1-713-1043","TEMP","Temperature",98.4,"F"
"STUDY1","STUDY1-713-1043","TEMP","Temperature",97.6,"F"
"STUDY1","STUDY1-713-1043","TEMP","Temperature",98.2,"F"
"STUDY1","STUDY1-713-1043","TEMP","Temperature",97.2,"F"
"STUDY1","STUDY1-713-1043","TEMP","Temperature",98.1,"F"
"STUDY1","STUDY1-713-1073","TEMP","Temperature",98.6,"F"
"STUDY1","STUDY1-713-1073","TEMP","Temperature",98.6,"F"
"STUDY1","STUDY1-713-1073","TEMP","Temperature",97.8,"F"
"STUDY1","STUDY1-713-1073","TEMP","Temperature",98.4,"F"
"STUDY1","STUDY1-713-1073","TEMP","Temperature",98,"F"
"STUDY1","STUDY1-713-1073","TEMP","Temperature",97.6,"F"
"STUDY1","STUDY1-713-1073","TEMP","Temperature",98.2,"F"
"STUDY1","STUDY1-713-1073","TEMP","Temperature",98.4,"F"
"STUDY1","STUDY1-713-1073","TEMP","Temperature",98.8,"F"
"STUDY1","STUDY1-713-1073","TEMP","Temperature",98.6,"F"
"STUDY1","STUDY1-713-1073","TEMP","Temperature",97.8,"F"
"STUDY1","STUDY1-713-1073","TEMP","Temperature",98.4,"F"
"STUDY1","STUDY1-713-1073","TEMP","Temperature",98.8,"F"
"STUDY1","STUDY1-713-1106","TEMP","Temperature",97.7,"F"
"STUDY1","STUDY1-713-1106","TEMP","Temperature",98.6,"F"
"STUDY1","STUDY1-713-1106","TEMP","Temperature",98.4,"F"
"STUDY1","STUDY1-713-1106","TEMP","Temperature",97.9,"F"
"STUDY1","STUDY1-713-1106","TEMP","Temperature",98.4,"F"
"STUDY1","STUDY1-713-1106","TEMP","Temperature",98.5,"F"
"STUDY1","STUDY1-713-1106","TEMP","Temperature",98,"F"
"STUDY1","STUDY1-713-1106","TEMP","Temperature",98.2,"F"
"STUDY1","STUDY1-713-1106","TEMP","Temperature",97.7,"F"
"STUDY1","STUDY1-713-1106","TEMP","Temperature",97.8,"F"
"STUDY1","STUDY1-713-1106","TEMP","Temperature",97.4,"F"
"STUDY1","STUDY1-713-1106","TEMP","Temperature",97.8,"F"
"STUDY1","STUDY1-713-1106","TEMP","Temperature",97.9,"F"
"STUDY1","STUDY1-713-1106","TEMP","Temperature",98.3,"F"
"STUDY1","STUDY1-713-1141","TEMP","Temperature",97.4,"F"
"STUDY1","STUDY1-713-1141","TEMP","Temperature",97.6,"F"
"STUDY1","STUDY1-713-1141","TEMP","Temperature",97.4,"F"
"STUDY1","STUDY1-713-1141","TEMP","Temperature",96,"F"
"STUDY1","STUDY1-713-1141","TEMP","Temperature",96.2,"F"
"STUDY1","STUDY1-713-1141","TEMP","Temperature",97.8,"F"
"STUDY1","STUDY1-713-1141","TEMP","Temperature",97.6,"F"
"STUDY1","STUDY1-713-1141","TEMP","Temperature",96.9,"F"
"STUDY1","STUDY1-713-1179","TEMP","Temperature",97.6,"F"
"STUDY1","STUDY1-713-1179","TEMP","Temperature",98.2,"F"
"STUDY1","STUDY1-713-1179","TEMP","Temperature",97.1,"F"
"STUDY1","STUDY1-713-1179","TEMP","Temperature",96.9,"F"
"STUDY1","STUDY1-713-1179","TEMP","Temperature",96.8,"F"
"STUDY1","STUDY1-713-1179","TEMP","Temperature",96.5,"F"
"STUDY1","STUDY1-713-1179","TEMP","Temperature",97.3,"F"
"STUDY1","STUDY1-713-1179","TEMP","Temperature",98.1,"F"
"STUDY1","STUDY1-713-1179","TEMP","Temperature",97.4,"F"
"STUDY1","STUDY1-713-1179","TEMP","Temperature",98,"F"
"STUDY1","STUDY1-713-1179","TEMP","Temperature",98.1,"F"
"STUDY1","STUDY1-713-1179","TEMP","Temperature",99,"F"
"STUDY1","STUDY1-713-1179","TEMP","Temperature",98.2,"F"
"STUDY1","STUDY1-713-1179","TEMP","Temperature",97.6,"F"
"STUDY1","STUDY1-713-1209","TEMP","Temperature",98,"F"
"STUDY1","STUDY1-713-1209","TEMP","Temperature",98.2,"F"
"STUDY1","STUDY1-713-1209","TEMP","Temperature",97.9,"F"
"STUDY1","STUDY1-713-1209","TEMP","Temperature",97.6,"F"
"STUDY1","STUDY1-713-1209","TEMP","Temperature",97.6,"F"
"STUDY1","STUDY1-713-1209","TEMP","Temperature",98,"F"
"STUDY1","STUDY1-713-1209","TEMP","Temperature",96.6,"F"
"STUDY1","STUDY1-713-1209","TEMP","Temperature",98.1,"F"
"STUDY1","STUDY1-713-1209","TEMP","Temperature",98.4,"F"
"STUDY1","STUDY1-713-1209","TEMP","Temperature",98.5,"F"
"STUDY1","STUDY1-713-1209","TEMP","Temperature",96.9,"F"
"STUDY1","STUDY1-713-1209","TEMP","Temperature",97.8,"F"
"STUDY1","STUDY1-713-1209","TEMP","Temperature",96.2,"F"
"STUDY1","STUDY1-713-1209","TEMP","Temperature",97.6,"F"
"STUDY1","STUDY1-713-1256","TEMP","Temperature",97.7,"F"
"STUDY1","STUDY1-713-1256","TEMP","Temperature",97.4,"F"
"STUDY1","STUDY1-713-1256","TEMP","Temperature",97.5,"F"
"STUDY1","STUDY1-713-1256","TEMP","Temperature",98,"F"
"STUDY1","STUDY1-713-1256","TEMP","Temperature",96.5,"F"
"STUDY1","STUDY1-713-1256","TEMP","Temperature",98.4,"F"
"STUDY1","STUDY1-713-1256","TEMP","Temperature",97.8,"F"
"STUDY1","STUDY1-713-1256","TEMP","Temperature",98,"F"
"STUDY1","STUDY1-713-1256","TEMP","Temperature",98.6,"F"
"STUDY1","STUDY1-713-1256","TEMP","Temperature",97.4,"F"
"STUDY1","STUDY1-713-1256","TEMP","Temperature",98,"F"
"STUDY1","STUDY1-713-1256","TEMP","Temperature",97.8,"F"
"STUDY1","STUDY1-713-1256","TEMP","Temperature",97.6,"F"
"STUDY1","STUDY1-713-1256","TEMP","Temperature",97.3,"F"
"STUDY1","STUDY1-713-1269","TEMP","Temperature",98.8,"F"
"STUDY1","STUDY1-713-1269","TEMP","Temperature",98.2,"F"
"STUDY1","STUDY1-713-1269","TEMP","Temperature",97.4,"F"
"STUDY1","STUDY1-713-1269","TEMP","Temperature",98.4,"F"
"STUDY1","STUDY1-713-1269","TEMP","Temperature",98.6,"F"
"STUDY1","STUDY1-713-1269","TEMP","Temperature",98.4,"F"
"STUDY1","STUDY1-713-1269","TEMP","Temperature",97.6,"F"
"STUDY1","STUDY1-713-1269","TEMP","Temperature",96.6,"F"
"STUDY1","STUDY1-713-1269","TEMP","Temperature",98,"F"
"STUDY1","STUDY1-713-1269","TEMP","Temperature",98.7,"F"
"STUDY1","STUDY1-713-1269","TEMP","Temperature",98.2,"F"
"STUDY1","STUDY1-713-1269","TEMP","Temperature",98.4,"F"
"STUDY1","STUDY1-713-1269","TEMP","Temperature",98.8,"F"
"STUDY1","STUDY1-713-1448","TEMP","Temperature",97.8,"F"
"STUDY1","STUDY1-713-1448","TEMP","Temperature",98.4,"F"
"STUDY1","STUDY1-713-1448","TEMP","Temperature",97.8,"F"
"STUDY1","STUDY1-713-1448","TEMP","Temperature",96.6,"F"
"STUDY1","STUDY1-713-1448","TEMP","Temperature",98.4,"F"
"STUDY1","STUDY1-713-1448","TEMP","Temperature",97,"F"
"STUDY1","STUDY1-713-1448","TEMP","Temperature",98.4,"F"
"STUDY1","STUDY1-713-1448","TEMP","Temperature",98,"F"
"STUDY1","STUDY1-713-1448","TEMP","Temperature",97.8,"F"
"STUDY1","STUDY1-713-1448","TEMP","Temperature",98.8,"F"
"STUDY1","STUDY1-713-1448","TEMP","Temperature",97.8,"F"
"STUDY1","STUDY1-713-1448","TEMP","Temperature",98.1,"F"
"STUDY1","STUDY1-714-1035","TEMP","Temperature",98.3,"F"
"STUDY1","STUDY1-714-1035","TEMP","Temperature",97.8,"F"
"STUDY1","STUDY1-714-1035","TEMP","Temperature",97.8,"F"
"STUDY1","STUDY1-714-1035","TEMP","Temperature",99.1,"F"
"STUDY1","STUDY1-714-1035","TEMP","Temperature",98.4,"F"
"STUDY1","STUDY1-714-1035","TEMP","Temperature",99.4,"F"
"STUDY1","STUDY1-714-1035","TEMP","Temperature",99.5,"F"
"STUDY1","STUDY1-714-1035","TEMP","Temperature",98.9,"F"
"STUDY1","STUDY1-714-1035","TEMP","Temperature",98.5,"F"
"STUDY1","STUDY1-714-1035","TEMP","Temperature",98.6,"F"
"STUDY1","STUDY1-714-1035","TEMP","Temperature",98.6,"F"
"STUDY1","STUDY1-714-1035","TEMP","Temperature",97.8,"F"
"STUDY1","STUDY1-714-1035","TEMP","Temperature",98.8,"F"
"STUDY1","STUDY1-714-1035","TEMP","Temperature",98.8,"F"
"STUDY1","STUDY1-714-1068","TEMP","Temperature",98.2,"F"
"STUDY1","STUDY1-714-1068","TEMP","Temperature",98.2,"F"
"STUDY1","STUDY1-714-1068","TEMP","Temperature",97.9,"F"
"STUDY1","STUDY1-714-1068","TEMP","Temperature",98.2,"F"
"STUDY1","STUDY1-714-1068","TEMP","Temperature",98.9,"F"
"STUDY1","STUDY1-714-1068","TEMP","Temperature",98.2,"F"
"STUDY1","STUDY1-714-1068","TEMP","Temperature",99.9,"F"
"STUDY1","STUDY1-714-1068","TEMP","Temperature",98.4,"F"
"STUDY1","STUDY1-714-1068","TEMP","Temperature",98.4,"F"
"STUDY1","STUDY1-714-1068","TEMP","Temperature",98.8,"F"
"STUDY1","STUDY1-714-1195","TEMP","Temperature",98.2,"F"
"STUDY1","STUDY1-714-1195","TEMP","Temperature",97.7,"F"
"STUDY1","STUDY1-714-1195","TEMP","Temperature",98.3,"F"
"STUDY1","STUDY1-714-1195","TEMP","Temperature",97.7,"F"
"STUDY1","STUDY1-714-1195","TEMP","Temperature",97,"F"
"STUDY1","STUDY1-714-1195","TEMP","Temperature",98.1,"F"
"STUDY1","STUDY1-714-1195","TEMP","Temperature",97.5,"F"
"STUDY1","STUDY1-714-1195","TEMP","Temperature",98.4,"F"
"STUDY1","STUDY1-714-1195","TEMP","Temperature",97.3,"F"
"STUDY1","STUDY1-714-1195","TEMP","Temperature",97,"F"
"STUDY1","STUDY1-714-1195","TEMP","Temperature",96.2,"F"
"STUDY1","STUDY1-714-1195","TEMP","Temperature",96.7,"F"
"STUDY1","STUDY1-714-1288","TEMP","Temperature",97.6,"F"
"STUDY1","STUDY1-714-1288","TEMP","Temperature",97.9,"F"
"STUDY1","STUDY1-714-1288","TEMP","Temperature",97.8,"F"
"STUDY1","STUDY1-714-1288","TEMP","Temperature",98.1,"F"
"STUDY1","STUDY1-714-1288","TEMP","Temperature",97.9,"F"
"STUDY1","STUDY1-714-1288","TEMP","Temperature",98.2,"F"
"STUDY1","STUDY1-714-1288","TEMP","Temperature",98.4,"F"
"STUDY1","STUDY1-714-1288","TEMP","Temperature",97.6,"F"
"STUDY1","STUDY1-714-1288","TEMP","Temperature",97.6,"F"
"STUDY1","STUDY1-714-1288","TEMP","Temperature",97.4,"F"
"STUDY1","STUDY1-714-1288","TEMP","Temperature",99.4,"F"
"STUDY1","STUDY1-714-1288","TEMP","Temperature",96.7,"F"
"STUDY1","STUDY1-714-1288","TEMP","Temperature",98.3,"F"
"STUDY1","STUDY1-714-1375","TEMP","Temperature",98.7,"F"
"STUDY1","STUDY1-714-1375","TEMP","Temperature",97.5,"F"
"STUDY1","STUDY1-714-1375","TEMP","Temperature",98,"F"
"STUDY1","STUDY1-714-1375","TEMP","Temperature",98.2,"F"
"STUDY1","STUDY1-714-1375","TEMP","Temperature",98.6,"F"
"STUDY1","STUDY1-714-1375","TEMP","Temperature",98.2,"F"
"STUDY1","STUDY1-714-1375","TEMP","Temperature",98.2,"F"
"STUDY1","STUDY1-714-1375","TEMP","Temperature",97.8,"F"
"STUDY1","STUDY1-714-1375","TEMP","Temperature",97.7,"F"
"STUDY1","STUDY1-714-1375","TEMP","Temperature",98,"F"
"STUDY1","STUDY1-714-1375","TEMP","Temperature",98.5,"F"
"STUDY1","STUDY1-714-1375","TEMP","Temperature",98.3,"F"
"STUDY1","STUDY1-714-1375","TEMP","Temperature",98.3,"F"
"STUDY1","STUDY1-714-1375","TEMP","Temperature",98.6,"F"
"STUDY1","STUDY1-714-1425","TEMP","Temperature",97.5,"F"
"STUDY1","STUDY1-714-1425","TEMP","Temperature",97.9,"F"
"STUDY1","STUDY1-714-1425","TEMP","Temperature",96.5,"F"
"STUDY1","STUDY1-714-1425","TEMP","Temperature",96.9,"F"
"STUDY1","STUDY1-715-1085","TEMP","Temperature",98.4,"F"
"STUDY1","STUDY1-715-1085","TEMP","Temperature",96.7,"F"
"STUDY1","STUDY1-715-1085","TEMP","Temperature",97.7,"F"
"STUDY1","STUDY1-715-1085","TEMP","Temperature",98.2,"F"
"STUDY1","STUDY1-715-1085","TEMP","Temperature",97.3,"F"
"STUDY1","STUDY1-715-1085","TEMP","Temperature",97.8,"F"
"STUDY1","STUDY1-715-1085","TEMP","Temperature",97.3,"F"
"STUDY1","STUDY1-715-1085","TEMP","Temperature",97.3,"F"
"STUDY1","STUDY1-715-1085","TEMP","Temperature",97.3,"F"
"STUDY1","STUDY1-715-1085","TEMP","Temperature",97.6,"F"
"STUDY1","STUDY1-715-1085","TEMP","Temperature",98.5,"F"
"STUDY1","STUDY1-715-1085","TEMP","Temperature",97.5,"F"
"STUDY1","STUDY1-715-1085","TEMP","Temperature",97.3,"F"
"STUDY1","STUDY1-715-1085","TEMP","Temperature",98,"F"
"STUDY1","STUDY1-715-1107","TEMP","Temperature",97.3,"F"
"STUDY1","STUDY1-715-1107","TEMP","Temperature",96.3,"F"
"STUDY1","STUDY1-715-1107","TEMP","Temperature",97,"F"
"STUDY1","STUDY1-715-1107","TEMP","Temperature",97.9,"F"
"STUDY1","STUDY1-715-1107","TEMP","Temperature",97.6,"F"
"STUDY1","STUDY1-715-1107","TEMP","Temperature",98,"F"
"STUDY1","STUDY1-715-1107","TEMP","Temperature",97.8,"F"
"STUDY1","STUDY1-715-1107","TEMP","Temperature",97.1,"F"
"STUDY1","STUDY1-715-1107","TEMP","Temperature",98.8,"F"
"STUDY1","STUDY1-715-1107","TEMP","Temperature",97.5,"F"
"STUDY1","STUDY1-715-1107","TEMP","Temperature",97.3,"F"
"STUDY1","STUDY1-715-1155","TEMP","Temperature",98.4,"F"
"STUDY1","STUDY1-715-1155","TEMP","Temperature",96.4,"F"
"STUDY1","STUDY1-715-1155","TEMP","Temperature",97.5,"F"
"STUDY1","STUDY1-715-1155","TEMP","Temperature",97.3,"F"
"STUDY1","STUDY1-715-1155","TEMP","Temperature",97.6,"F"
"STUDY1","STUDY1-715-1155","TEMP","Temperature",97,"F"
"STUDY1","STUDY1-715-1155","TEMP","Temperature",97.4,"F"
"STUDY1","STUDY1-715-1207","TEMP","Temperature",97.3,"F"
"STUDY1","STUDY1-715-1207","TEMP","Temperature",98,"F"
"STUDY1","STUDY1-715-1207","TEMP","Temperature",97.5,"F"
"STUDY1","STUDY1-715-1207","TEMP","Temperature",98.2,"F"
"STUDY1","STUDY1-715-1207","TEMP","Temperature",97,"F"
"STUDY1","STUDY1-715-1207","TEMP","Temperature",97.6,"F"
"STUDY1","STUDY1-715-1207","TEMP","Temperature",97.4,"F"
"STUDY1","STUDY1-715-1207","TEMP","Temperature",97.3,"F"
"STUDY1","STUDY1-715-1207","TEMP","Temperature",98.5,"F"
"STUDY1","STUDY1-715-1207","TEMP","Temperature",97.8,"F"
"STUDY1","STUDY1-715-1207","TEMP","Temperature",97.6,"F"
"STUDY1","STUDY1-715-1207","TEMP","Temperature",97.5,"F"
"STUDY1","STUDY1-715-1207","TEMP","Temperature",96.4,"F"
"STUDY1","STUDY1-715-1207","TEMP","Temperature",97.7,"F"
"STUDY1","STUDY1-715-1319","TEMP","Temperature",97.9,"F"
"STUDY1","STUDY1-715-1319","TEMP","Temperature",96.6,"F"
"STUDY1","STUDY1-715-1319","TEMP","Temperature",97.6,"F"
"STUDY1","STUDY1-715-1319","TEMP","Temperature",97.6,"F"
"STUDY1","STUDY1-715-1319","TEMP","Temperature",98,"F"
"STUDY1","STUDY1-715-1319","TEMP","Temperature",98.2,"F"
"STUDY1","STUDY1-715-1321","TEMP","Temperature",98,"F"
"STUDY1","STUDY1-715-1321","TEMP","Temperature",97.5,"F"
"STUDY1","STUDY1-715-1321","TEMP","Temperature",96.9,"F"
"STUDY1","STUDY1-715-1321","TEMP","Temperature",96.8,"F"
"STUDY1","STUDY1-715-1321","TEMP","Temperature",97.3,"F"
"STUDY1","STUDY1-715-1321","TEMP","Temperature",97.6,"F"
"STUDY1","STUDY1-715-1321","TEMP","Temperature",97,"F"
"STUDY1","STUDY1-715-1321","TEMP","Temperature",97.6,"F"
"STUDY1","STUDY1-715-1321","TEMP","Temperature",97.8,"F"
"STUDY1","STUDY1-715-1321","TEMP","Temperature",97.8,"F"
"STUDY1","STUDY1-715-1397","TEMP","Temperature",98.8,"F"
"STUDY1","STUDY1-715-1397","TEMP","Temperature",97.8,"F"
"STUDY1","STUDY1-715-1397","TEMP","Temperature",98,"F"
"STUDY1","STUDY1-715-1397","TEMP","Temperature",98,"F"
"STUDY1","STUDY1-715-1397","TEMP","Temperature",97.7,"F"
"STUDY1","STUDY1-715-1397","TEMP","Temperature",97.6,"F"
"STUDY1","STUDY1-715-1397","TEMP","Temperature",98.4,"F"
"STUDY1","STUDY1-715-1397","TEMP","Temperature",97.8,"F"
"STUDY1","STUDY1-715-1397","TEMP","Temperature",98.1,"F"
"STUDY1","STUDY1-715-1397","TEMP","Temperature",97.7,"F"
"STUDY1","STUDY1-715-1397","TEMP","Temperature",98.5,"F"
"STUDY1","STUDY1-715-1397","TEMP","Temperature",97.3,"F"
"STUDY1","STUDY1-715-1397","TEMP","Temperature",97.4,"F"
"STUDY1","STUDY1-715-1397","TEMP","Temperature",98.5,"F"
"STUDY1","STUDY1-715-1405","TEMP","Temperature",97.9,"F"
"STUDY1","STUDY1-715-1405","TEMP","Temperature",97.8,"F"
"STUDY1","STUDY1-715-1405","TEMP","Temperature",97.9,"F"
"STUDY1","STUDY1-715-1405","TEMP","Temperature",97.5,"F"
"STUDY1","STUDY1-715-1405","TEMP","Temperature",96.4,"F"
"STUDY1","STUDY1-716-1024","TEMP","Temperature",98.5,"F"
"STUDY1","STUDY1-716-1024","TEMP","Temperature",98.1,"F"
"STUDY1","STUDY1-716-1024","TEMP","Temperature",98.1,"F"
"STUDY1","STUDY1-716-1024","TEMP","Temperature",98.3,"F"
"STUDY1","STUDY1-716-1024","TEMP","Temperature",98.5,"F"
"STUDY1","STUDY1-716-1024","TEMP","Temperature",99.6,"F"
"STUDY1","STUDY1-716-1024","TEMP","Temperature",98.1,"F"
"STUDY1","STUDY1-716-1024","TEMP","Temperature",98.7,"F"
"STUDY1","STUDY1-716-1024","TEMP","Temperature",98.2,"F"
"STUDY1","STUDY1-716-1024","TEMP","Temperature",98.3,"F"
"STUDY1","STUDY1-716-1024","TEMP","Temperature",97.1,"F"
"STUDY1","STUDY1-716-1024","TEMP","Temperature",97,"F"
"STUDY1","STUDY1-716-1024","TEMP","Temperature",98.2,"F"
"STUDY1","STUDY1-716-1024","TEMP","Temperature",97.8,"F"
"STUDY1","STUDY1-716-1026","TEMP","Temperature",98.1,"F"
"STUDY1","STUDY1-716-1026","TEMP","Temperature",97,"F"
"STUDY1","STUDY1-716-1026","TEMP","Temperature",97.3,"F"
"STUDY1","STUDY1-716-1026","TEMP","Temperature",98.8,"F"
"STUDY1","STUDY1-716-1026","TEMP","Temperature",96.2,"F"
"STUDY1","STUDY1-716-1026","TEMP","Temperature",96.9,"F"
"STUDY1","STUDY1-716-1026","TEMP","Temperature",96.6,"F"
"STUDY1","STUDY1-716-1026","TEMP","Temperature",96.7,"F"
"STUDY1","STUDY1-716-1026","TEMP","Temperature",97.1,"F"
"STUDY1","STUDY1-716-1026","TEMP","Temperature",97.2,"F"
"STUDY1","STUDY1-716-1026","TEMP","Temperature",97.2,"F"
"STUDY1","STUDY1-716-1026","TEMP","Temperature",97.9,"F"
"STUDY1","STUDY1-716-1026","TEMP","Temperature",97.9,"F"
"STUDY1","STUDY1-716-1026","TEMP","Temperature",97.9,"F"
"STUDY1","STUDY1-716-1030","TEMP","Temperature",97.4,"F"
"STUDY1","STUDY1-716-1030","TEMP","Temperature",98.2,"F"
"STUDY1","STUDY1-716-1030","TEMP","Temperature",97.3,"F"
"STUDY1","STUDY1-716-1030","TEMP","Temperature",96.2,"F"
"STUDY1","STUDY1-716-1044","TEMP","Temperature",97.5,"F"
"STUDY1","STUDY1-716-1044","TEMP","Temperature",97.9,"F"
"STUDY1","STUDY1-716-1044","TEMP","Temperature",98.2,"F"
"STUDY1","STUDY1-716-1044","TEMP","Temperature",98.3,"F"
"STUDY1","STUDY1-716-1044","TEMP","Temperature",98.4,"F"
"STUDY1","STUDY1-716-1044","TEMP","Temperature",98.1,"F"
"STUDY1","STUDY1-716-1044","TEMP","Temperature",98.2,"F"
"STUDY1","STUDY1-716-1044","TEMP","Temperature",97.2,"F"
"STUDY1","STUDY1-716-1044","TEMP","Temperature",97.3,"F"
"STUDY1","STUDY1-716-1044","TEMP","Temperature",98.5,"F"
"STUDY1","STUDY1-716-1044","TEMP","Temperature",96.6,"F"
"STUDY1","STUDY1-716-1044","TEMP","Temperature",97.2,"F"
"STUDY1","STUDY1-716-1044","TEMP","Temperature",96.8,"F"
"STUDY1","STUDY1-716-1044","TEMP","Temperature",98.1,"F"
"STUDY1","STUDY1-716-1063","TEMP","Temperature",97.4,"F"
"STUDY1","STUDY1-716-1063","TEMP","Temperature",97.2,"F"
"STUDY1","STUDY1-716-1063","TEMP","Temperature",97,"F"
"STUDY1","STUDY1-716-1063","TEMP","Temperature",97.6,"F"
"STUDY1","STUDY1-716-1063","TEMP","Temperature",96.7,"F"
"STUDY1","STUDY1-716-1063","TEMP","Temperature",98.1,"F"
"STUDY1","STUDY1-716-1063","TEMP","Temperature",97.8,"F"
"STUDY1","STUDY1-716-1063","TEMP","Temperature",96.8,"F"
"STUDY1","STUDY1-716-1063","TEMP","Temperature",96.9,"F"
"STUDY1","STUDY1-716-1063","TEMP","Temperature",97.4,"F"
"STUDY1","STUDY1-716-1063","TEMP","Temperature",96.6,"F"
"STUDY1","STUDY1-716-1063","TEMP","Temperature",97,"F"
"STUDY1","STUDY1-716-1071","TEMP","Temperature",97.3,"F"
"STUDY1","STUDY1-716-1071","TEMP","Temperature",97.9,"F"
"STUDY1","STUDY1-716-1071","TEMP","Temperature",98,"F"
"STUDY1","STUDY1-716-1071","TEMP","Temperature",98.2,"F"
"STUDY1","STUDY1-716-1071","TEMP","Temperature",98.1,"F"
"STUDY1","STUDY1-716-1071","TEMP","Temperature",97.2,"F"
"STUDY1","STUDY1-716-1071","TEMP","Temperature",97.3,"F"
"STUDY1","STUDY1-716-1071","TEMP","Temperature",96.1,"F"
"STUDY1","STUDY1-716-1071","TEMP","Temperature",97.2,"F"
"STUDY1","STUDY1-716-1071","TEMP","Temperature",97.9,"F"
"STUDY1","STUDY1-716-1094","TEMP","Temperature",97.3,"F"
"STUDY1","STUDY1-716-1094","TEMP","Temperature",97.1,"F"
"STUDY1","STUDY1-716-1094","TEMP","Temperature",97.8,"F"
"STUDY1","STUDY1-716-1094","TEMP","Temperature",97.4,"F"
"STUDY1","STUDY1-716-1094","TEMP","Temperature",97.7,"F"
"STUDY1","STUDY1-716-1094","TEMP","Temperature",97,"F"
"STUDY1","STUDY1-716-1094","TEMP","Temperature",96.7,"F"
"STUDY1","STUDY1-716-1094","TEMP","Temperature",97.5,"F"
"STUDY1","STUDY1-716-1094","TEMP","Temperature",98.1,"F"
"STUDY1","STUDY1-716-1103","TEMP","Temperature",97,"F"
"STUDY1","STUDY1-716-1103","TEMP","Temperature",96.7,"F"
"STUDY1","STUDY1-716-1103","TEMP","Temperature",96.5,"F"
"STUDY1","STUDY1-716-1103","TEMP","Temperature",97,"F"
"STUDY1","STUDY1-716-1103","TEMP","Temperature",98,"F"
"STUDY1","STUDY1-716-1103","TEMP","Temperature",97.2,"F"
"STUDY1","STUDY1-716-1103","TEMP","Temperature",97.2,"F"
"STUDY1","STUDY1-716-1103","TEMP","Temperature",97.2,"F"
"STUDY1","STUDY1-716-1103","TEMP","Temperature",97.6,"F"
"STUDY1","STUDY1-716-1103","TEMP","Temperature",97.3,"F"
"STUDY1","STUDY1-716-1103","TEMP","Temperature",97.1,"F"
"STUDY1","STUDY1-716-1103","TEMP","Temperature",97.4,"F"
"STUDY1","STUDY1-716-1103","TEMP","Temperature",98.1,"F"
"STUDY1","STUDY1-716-1103","TEMP","Temperature",97.6,"F"
"STUDY1","STUDY1-716-1108","TEMP","Temperature",97,"F"
"STUDY1","STUDY1-716-1108","TEMP","Temperature",97.2,"F"
"STUDY1","STUDY1-716-1108","TEMP","Temperature",97.8,"F"
"STUDY1","STUDY1-716-1108","TEMP","Temperature",97.2,"F"
"STUDY1","STUDY1-716-1108","TEMP","Temperature",98.4,"F"
"STUDY1","STUDY1-716-1108","TEMP","Temperature",97.5,"F"
"STUDY1","STUDY1-716-1108","TEMP","Temperature",97.2,"F"
"STUDY1","STUDY1-716-1108","TEMP","Temperature",98.5,"F"
"STUDY1","STUDY1-716-1108","TEMP","Temperature",97.2,"F"
"STUDY1","STUDY1-716-1108","TEMP","Temperature",98.2,"F"
"STUDY1","STUDY1-716-1108","TEMP","Temperature",97.9,"F"
"STUDY1","STUDY1-716-1108","TEMP","Temperature",97.2,"F"
"STUDY1","STUDY1-716-1108","TEMP","Temperature",97.6,"F"
"STUDY1","STUDY1-716-1108","TEMP","Temperature",97.6,"F"
"STUDY1","STUDY1-716-1151","TEMP","Temperature",98.5,"F"
"STUDY1","STUDY1-716-1151","TEMP","Temperature",97.9,"F"
"STUDY1","STUDY1-716-1151","TEMP","Temperature",97.9,"F"
"STUDY1","STUDY1-716-1151","TEMP","Temperature",96.2,"F"
"STUDY1","STUDY1-716-1151","TEMP","Temperature",96.7,"F"
"STUDY1","STUDY1-716-1151","TEMP","Temperature",96.4,"F"
"STUDY1","STUDY1-716-1151","TEMP","Temperature",96.8,"F"
"STUDY1","STUDY1-716-1151","TEMP","Temperature",97.7,"F"
"STUDY1","STUDY1-716-1151","TEMP","Temperature",97.1,"F"
"STUDY1","STUDY1-716-1151","TEMP","Temperature",96.3,"F"
"STUDY1","STUDY1-716-1151","TEMP","Temperature",97.4,"F"
"STUDY1","STUDY1-716-1151","TEMP","Temperature",97.4,"F"
"STUDY1","STUDY1-716-1157","TEMP","Temperature",97.9,"F"
"STUDY1","STUDY1-716-1157","TEMP","Temperature",97.1,"F"
"STUDY1","STUDY1-716-1157","TEMP","Temperature",96.9,"F"
"STUDY1","STUDY1-716-1157","TEMP","Temperature",97.3,"F"
"STUDY1","STUDY1-716-1157","TEMP","Temperature",97.7,"F"
"STUDY1","STUDY1-716-1157","TEMP","Temperature",96.5,"F"
"STUDY1","STUDY1-716-1157","TEMP","Temperature",96.3,"F"
"STUDY1","STUDY1-716-1157","TEMP","Temperature",96.4,"F"
"STUDY1","STUDY1-716-1157","TEMP","Temperature",97,"F"
"STUDY1","STUDY1-716-1157","TEMP","Temperature",96.3,"F"
"STUDY1","STUDY1-716-1157","TEMP","Temperature",97.3,"F"
"STUDY1","STUDY1-716-1157","TEMP","Temperature",97.3,"F"
"STUDY1","STUDY1-716-1157","TEMP","Temperature",97.1,"F"
"STUDY1","STUDY1-716-1157","TEMP","Temperature",97.9,"F"
"STUDY1","STUDY1-716-1160","TEMP","Temperature",97.3,"F"
"STUDY1","STUDY1-716-1160","TEMP","Temperature",98,"F"
"STUDY1","STUDY1-716-1160","TEMP","Temperature",97.8,"F"
"STUDY1","STUDY1-716-1160","TEMP","Temperature",96.5,"F"
"STUDY1","STUDY1-716-1160","TEMP","Temperature",97,"F"
"STUDY1","STUDY1-716-1160","TEMP","Temperature",97.2,"F"
"STUDY1","STUDY1-716-1160","TEMP","Temperature",97.1,"F"
"STUDY1","STUDY1-716-1160","TEMP","Temperature",97.8,"F"
"STUDY1","STUDY1-716-1160","TEMP","Temperature",97.3,"F"
"STUDY1","STUDY1-716-1160","TEMP","Temperature",97.9,"F"
"STUDY1","STUDY1-716-1160","TEMP","Temperature",97.6,"F"
"STUDY1","STUDY1-716-1160","TEMP","Temperature",97.7,"F"
"STUDY1","STUDY1-716-1160","TEMP","Temperature",98.4,"F"
"STUDY1","STUDY1-716-1167","TEMP","Temperature",97.7,"F"
"STUDY1","STUDY1-716-1167","TEMP","Temperature",96.6,"F"
"STUDY1","STUDY1-716-1167","TEMP","Temperature",97.1,"F"
"STUDY1","STUDY1-716-1167","TEMP","Temperature",96.1,"F"
"STUDY1","STUDY1-716-1167","TEMP","Temperature",96,"F"
"STUDY1","STUDY1-716-1167","TEMP","Temperature",95,"F"
"STUDY1","STUDY1-716-1167","TEMP","Temperature",95.3,"F"
"STUDY1","STUDY1-716-1167","TEMP","Temperature",95.4,"F"
"STUDY1","STUDY1-716-1167","TEMP","Temperature",96.8,"F"
"STUDY1","STUDY1-716-1167","TEMP","Temperature",97.3,"F"
"STUDY1","STUDY1-716-1167","TEMP","Temperature",97.1,"F"
"STUDY1","STUDY1-716-1167","TEMP","Temperature",97.1,"F"
"STUDY1","STUDY1-716-1167","TEMP","Temperature",98.2,"F"
"STUDY1","STUDY1-716-1177","TEMP","Temperature",97.2,"F"
"STUDY1","STUDY1-716-1177","TEMP","Temperature",97.9,"F"
"STUDY1","STUDY1-716-1177","TEMP","Temperature",97.4,"F"
"STUDY1","STUDY1-716-1177","TEMP","Temperature",97.6,"F"
"STUDY1","STUDY1-716-1177","TEMP","Temperature",98.5,"F"
"STUDY1","STUDY1-716-1177","TEMP","Temperature",97.9,"F"
"STUDY1","STUDY1-716-1177","TEMP","Temperature",97.7,"F"
"STUDY1","STUDY1-716-1177","TEMP","Temperature",97.2,"F"
"STUDY1","STUDY1-716-1177","TEMP","Temperature",98.8,"F"
"STUDY1","STUDY1-716-1177","TEMP","Temperature",98.2,"F"
"STUDY1","STUDY1-716-1177","TEMP","Temperature",99,"F"
"STUDY1","STUDY1-716-1189","TEMP","Temperature",97.7,"F"
"STUDY1","STUDY1-716-1189","TEMP","Temperature",98.2,"F"
"STUDY1","STUDY1-716-1189","TEMP","Temperature",97.1,"F"
"STUDY1","STUDY1-716-1189","TEMP","Temperature",97,"F"
"STUDY1","STUDY1-716-1189","TEMP","Temperature",97,"F"
"STUDY1","STUDY1-716-1189","TEMP","Temperature",98,"F"
"STUDY1","STUDY1-716-1189","TEMP","Temperature",97.6,"F"
"STUDY1","STUDY1-716-1189","TEMP","Temperature",96.6,"F"
"STUDY1","STUDY1-716-1189","TEMP","Temperature",96.1,"F"
"STUDY1","STUDY1-716-1189","TEMP","Temperature",96,"F"
"STUDY1","STUDY1-716-1189","TEMP","Temperature",96.8,"F"
"STUDY1","STUDY1-716-1189","TEMP","Temperature",96.3,"F"
"STUDY1","STUDY1-716-1189","TEMP","Temperature",97.6,"F"
"STUDY1","STUDY1-716-1229","TEMP","Temperature",97.5,"F"
"STUDY1","STUDY1-716-1229","TEMP","Temperature",96.6,"F"
"STUDY1","STUDY1-716-1229","TEMP","Temperature",96.6,"F"
"STUDY1","STUDY1-716-1229","TEMP","Temperature",97.7,"F"
"STUDY1","STUDY1-716-1229","TEMP","Temperature",97.1,"F"
"STUDY1","STUDY1-716-1229","TEMP","Temperature",97.8,"F"
"STUDY1","STUDY1-716-1229","TEMP","Temperature",96.3,"F"
"STUDY1","STUDY1-716-1229","TEMP","Temperature",96.9,"F"
"STUDY1","STUDY1-716-1298","TEMP","Temperature",96.5,"F"
"STUDY1","STUDY1-716-1298","TEMP","Temperature",96.4,"F"
"STUDY1","STUDY1-716-1298","TEMP","Temperature",97.6,"F"
"STUDY1","STUDY1-716-1298","TEMP","Temperature",97.6,"F"
"STUDY1","STUDY1-716-1298","TEMP","Temperature",97.9,"F"
"STUDY1","STUDY1-716-1298","TEMP","Temperature",97.3,"F"
"STUDY1","STUDY1-716-1298","TEMP","Temperature",97.5,"F"
"STUDY1","STUDY1-716-1298","TEMP","Temperature",97.9,"F"
"STUDY1","STUDY1-716-1298","TEMP","Temperature",98.2,"F"
"STUDY1","STUDY1-716-1308","TEMP","Temperature",98.1,"F"
"STUDY1","STUDY1-716-1308","TEMP","Temperature",98.9,"F"
"STUDY1","STUDY1-716-1308","TEMP","Temperature",98.5,"F"
"STUDY1","STUDY1-716-1308","TEMP","Temperature",98,"F"
"STUDY1","STUDY1-716-1308","TEMP","Temperature",97.5,"F"
"STUDY1","STUDY1-716-1308","TEMP","Temperature",97.3,"F"
"STUDY1","STUDY1-716-1308","TEMP","Temperature",97.9,"F"
"STUDY1","STUDY1-716-1308","TEMP","Temperature",97.2,"F"
"STUDY1","STUDY1-716-1311","TEMP","Temperature",96.3,"F"
"STUDY1","STUDY1-716-1311","TEMP","Temperature",97.2,"F"
"STUDY1","STUDY1-716-1311","TEMP","Temperature",97.2,"F"
"STUDY1","STUDY1-716-1311","TEMP","Temperature",98.9,"F"
"STUDY1","STUDY1-716-1311","TEMP","Temperature",97.9,"F"
"STUDY1","STUDY1-716-1311","TEMP","Temperature",98,"F"
"STUDY1","STUDY1-716-1311","TEMP","Temperature",97.9,"F"
"STUDY1","STUDY1-716-1311","TEMP","Temperature",100.5,"F"
"STUDY1","STUDY1-716-1311","TEMP","Temperature",99.1,"F"
"STUDY1","STUDY1-716-1311","TEMP","Temperature",97.6,"F"
"STUDY1","STUDY1-716-1364","TEMP","Temperature",97.5,"F"
"STUDY1","STUDY1-716-1364","TEMP","Temperature",96.4,"F"
"STUDY1","STUDY1-716-1364","TEMP","Temperature",98.3,"F"
"STUDY1","STUDY1-716-1364","TEMP","Temperature",97.2,"F"
"STUDY1","STUDY1-716-1364","TEMP","Temperature",98.1,"F"
"STUDY1","STUDY1-716-1364","TEMP","Temperature",97.1,"F"
"STUDY1","STUDY1-716-1364","TEMP","Temperature",97.7,"F"
"STUDY1","STUDY1-716-1364","TEMP","Temperature",97.7,"F"
"STUDY1","STUDY1-716-1364","TEMP","Temperature",98,"F"
"STUDY1","STUDY1-716-1364","TEMP","Temperature",98.6,"F"
"STUDY1","STUDY1-716-1364","TEMP","Temperature",98.2,"F"
"STUDY1","STUDY1-716-1364","TEMP","Temperature",99,"F"
"STUDY1","STUDY1-716-1373","TEMP","Temperature",97.2,"F"
"STUDY1","STUDY1-716-1373","TEMP","Temperature",96.6,"F"
"STUDY1","STUDY1-716-1373","TEMP","Temperature",96.1,"F"
"STUDY1","STUDY1-716-1373","TEMP","Temperature",95.7,"F"
"STUDY1","STUDY1-716-1373","TEMP","Temperature",96.2,"F"
"STUDY1","STUDY1-716-1373","TEMP","Temperature",97.5,"F"
"STUDY1","STUDY1-716-1373","TEMP","Temperature",96.7,"F"
"STUDY1","STUDY1-716-1373","TEMP","Temperature",96.5,"F"
"STUDY1","STUDY1-716-1373","TEMP","Temperature",96.6,"F"
"STUDY1","STUDY1-716-1373","TEMP","Temperature",96.8,"F"
"STUDY1","STUDY1-716-1418","TEMP","Temperature",97.5,"F"
"STUDY1","STUDY1-716-1418","TEMP","Temperature",97.2,"F"
"STUDY1","STUDY1-716-1418","TEMP","Temperature",97.2,"F"
"STUDY1","STUDY1-716-1418","TEMP","Temperature",97,"F"
"STUDY1","STUDY1-716-1418","TEMP","Temperature",97.6,"F"
"STUDY1","STUDY1-716-1418","TEMP","Temperature",97.5,"F"
"STUDY1","STUDY1-716-1418","TEMP","Temperature",98,"F"
"STUDY1","STUDY1-716-1418","TEMP","Temperature",97.3,"F"
"STUDY1","STUDY1-716-1418","TEMP","Temperature",96.8,"F"
"STUDY1","STUDY1-716-1418","TEMP","Temperature",97.9,"F"
"STUDY1","STUDY1-716-1418","TEMP","Temperature",97.8,"F"
"STUDY1","STUDY1-716-1418","TEMP","Temperature",99.4,"F"
"STUDY1","STUDY1-716-1418","TEMP","Temperature",98.4,"F"
"STUDY1","STUDY1-716-1441","TEMP","Temperature",96.6,"F"
"STUDY1","STUDY1-716-1441","TEMP","Temperature",96.6,"F"
"STUDY1","STUDY1-716-1441","TEMP","Temperature",97.2,"F"
"STUDY1","STUDY1-716-1441","TEMP","Temperature",98.4,"F"
"STUDY1","STUDY1-716-1441","TEMP","Temperature",97.4,"F"
"STUDY1","STUDY1-716-1441","TEMP","Temperature",93.7,"F"
"STUDY1","STUDY1-716-1441","TEMP","Temperature",95,"F"
"STUDY1","STUDY1-716-1441","TEMP","Temperature",97,"F"
"STUDY1","STUDY1-716-1441","TEMP","Temperature",98,"F"
"STUDY1","STUDY1-716-1441","TEMP","Temperature",96.4,"F"
"STUDY1","STUDY1-716-1441","TEMP","Temperature",97.9,"F"
"STUDY1","STUDY1-716-1441","TEMP","Temperature",97.8,"F"
"STUDY1","STUDY1-716-1441","TEMP","Temperature",97.1,"F"
"STUDY1","STUDY1-716-1447","TEMP","Temperature",96.3,"F"
"STUDY1","STUDY1-716-1447","TEMP","Temperature",96.9,"F"
"STUDY1","STUDY1-716-1447","TEMP","Temperature",97.4,"F"
"STUDY1","STUDY1-716-1447","TEMP","Temperature",98,"F"
"STUDY1","STUDY1-716-1447","TEMP","Temperature",98.2,"F"
"STUDY1","STUDY1-716-1447","TEMP","Temperature",96.9,"F"
"STUDY1","STUDY1-716-1447","TEMP","Temperature",96.6,"F"
"STUDY1","STUDY1-716-1447","TEMP","Temperature",96.7,"F"
"STUDY1","STUDY1-716-1447","TEMP","Temperature",96.2,"F"
"STUDY1","STUDY1-716-1447","TEMP","Temperature",96.7,"F"
"STUDY1","STUDY1-716-1447","TEMP","Temperature",97.4,"F"
"STUDY1","STUDY1-716-1447","TEMP","Temperature",97.2,"F"
"STUDY1","STUDY1-716-1447","TEMP","Temperature",97.2,"F"
"STUDY1","STUDY1-716-1447","TEMP","Temperature",97.9,"F"
"STUDY1","STUDY1-717-1004","TEMP","Temperature",97.6,"F"
"STUDY1","STUDY1-717-1004","TEMP","Temperature",98.6,"F"
"STUDY1","STUDY1-717-1004","TEMP","Temperature",98.8,"F"
"STUDY1","STUDY1-717-1004","TEMP","Temperature",98.9,"F"
"STUDY1","STUDY1-717-1004","TEMP","Temperature",98.8,"F"
"STUDY1","STUDY1-717-1004","TEMP","Temperature",98.6,"F"
"STUDY1","STUDY1-717-1004","TEMP","Temperature",98.6,"F"
"STUDY1","STUDY1-717-1004","TEMP","Temperature",99.2,"F"
"STUDY1","STUDY1-717-1004","TEMP","Temperature",98.2,"F"
"STUDY1","STUDY1-717-1004","TEMP","Temperature",98.6,"F"
"STUDY1","STUDY1-717-1004","TEMP","Temperature",97.6,"F"
"STUDY1","STUDY1-717-1004","TEMP","Temperature",97.6,"F"
"STUDY1","STUDY1-717-1004","TEMP","Temperature",98.8,"F"
"STUDY1","STUDY1-717-1004","TEMP","Temperature",97.8,"F"
"STUDY1","STUDY1-717-1109","TEMP","Temperature",98.2,"F"
"STUDY1","STUDY1-717-1109","TEMP","Temperature",98.6,"F"
"STUDY1","STUDY1-717-1109","TEMP","Temperature",98,"F"
"STUDY1","STUDY1-717-1109","TEMP","Temperature",98.8,"F"
"STUDY1","STUDY1-717-1109","TEMP","Temperature",98.3,"F"
"STUDY1","STUDY1-717-1109","TEMP","Temperature",98.6,"F"
"STUDY1","STUDY1-717-1109","TEMP","Temperature",97.8,"F"
"STUDY1","STUDY1-717-1109","TEMP","Temperature",98.8,"F"
"STUDY1","STUDY1-717-1109","TEMP","Temperature",98.7,"F"
"STUDY1","STUDY1-717-1109","TEMP","Temperature",97.8,"F"
"STUDY1","STUDY1-717-1109","TEMP","Temperature",97.2,"F"
"STUDY1","STUDY1-717-1109","TEMP","Temperature",98.8,"F"
"STUDY1","STUDY1-717-1109","TEMP","Temperature",97.8,"F"
"STUDY1","STUDY1-717-1109","TEMP","Temperature",97.8,"F"
"STUDY1","STUDY1-717-1174","TEMP","Temperature",98.8,"F"
"STUDY1","STUDY1-717-1174","TEMP","Temperature",98.8,"F"
"STUDY1","STUDY1-717-1174","TEMP","Temperature",97.2,"F"
"STUDY1","STUDY1-717-1174","TEMP","Temperature",98.2,"F"
"STUDY1","STUDY1-717-1174","TEMP","Temperature",98,"F"
"STUDY1","STUDY1-717-1174","TEMP","Temperature",98.4,"F"
"STUDY1","STUDY1-717-1174","TEMP","Temperature",97.3,"F"
"STUDY1","STUDY1-717-1174","TEMP","Temperature",98,"F"
"STUDY1","STUDY1-717-1174","TEMP","Temperature",98.4,"F"
"STUDY1","STUDY1-717-1174","TEMP","Temperature",97.6,"F"
"STUDY1","STUDY1-717-1174","TEMP","Temperature",97.8,"F"
"STUDY1","STUDY1-717-1174","TEMP","Temperature",98.6,"F"
"STUDY1","STUDY1-717-1174","TEMP","Temperature",98.8,"F"
"STUDY1","STUDY1-717-1201","TEMP","Temperature",99,"F"
"STUDY1","STUDY1-717-1201","TEMP","Temperature",98.4,"F"
"STUDY1","STUDY1-717-1201","TEMP","Temperature",98,"F"
"STUDY1","STUDY1-717-1201","TEMP","Temperature",98.8,"F"
"STUDY1","STUDY1-717-1201","TEMP","Temperature",98.8,"F"
"STUDY1","STUDY1-717-1201","TEMP","Temperature",98.8,"F"
"STUDY1","STUDY1-717-1201","TEMP","Temperature",98.6,"F"
"STUDY1","STUDY1-717-1201","TEMP","Temperature",98,"F"
"STUDY1","STUDY1-717-1201","TEMP","Temperature",99.4,"F"
"STUDY1","STUDY1-717-1344","TEMP","Temperature",96.8,"F"
"STUDY1","STUDY1-717-1344","TEMP","Temperature",99,"F"
"STUDY1","STUDY1-717-1344","TEMP","Temperature",98.8,"F"
"STUDY1","STUDY1-717-1344","TEMP","Temperature",97.8,"F"
"STUDY1","STUDY1-717-1344","TEMP","Temperature",97.6,"F"
"STUDY1","STUDY1-717-1344","TEMP","Temperature",99,"F"
"STUDY1","STUDY1-717-1344","TEMP","Temperature",98.9,"F"
"STUDY1","STUDY1-717-1344","TEMP","Temperature",98.8,"F"
"STUDY1","STUDY1-717-1344","TEMP","Temperature",98.9,"F"
"STUDY1","STUDY1-717-1357","TEMP","Temperature",97.8,"F"
"STUDY1","STUDY1-717-1357","TEMP","Temperature",97.2,"F"
"STUDY1","STUDY1-717-1357","TEMP","Temperature",96.8,"F"
"STUDY1","STUDY1-717-1357","TEMP","Temperature",97.2,"F"
"STUDY1","STUDY1-717-1357","TEMP","Temperature",98,"F"
"STUDY1","STUDY1-717-1357","TEMP","Temperature",97.8,"F"
"STUDY1","STUDY1-717-1357","TEMP","Temperature",97.2,"F"
"STUDY1","STUDY1-717-1357","TEMP","Temperature",97.2,"F"
"STUDY1","STUDY1-717-1357","TEMP","Temperature",98.8,"F"
"STUDY1","STUDY1-717-1357","TEMP","Temperature",98.4,"F"
"STUDY1","STUDY1-717-1357","TEMP","Temperature",98.2,"F"
"STUDY1","STUDY1-717-1446","TEMP","Temperature",98.6,"F"
"STUDY1","STUDY1-717-1446","TEMP","Temperature",98.8,"F"
"STUDY1","STUDY1-717-1446","TEMP","Temperature",98.2,"F"
"STUDY1","STUDY1-717-1446","TEMP","Temperature",98.6,"F"
"STUDY1","STUDY1-717-1446","TEMP","Temperature",99.8,"F"
"STUDY1","STUDY1-717-1446","TEMP","Temperature",98.8,"F"
"STUDY1","STUDY1-717-1446","TEMP","Temperature",98.6,"F"
"STUDY1","STUDY1-717-1446","TEMP","Temperature",98.8,"F"
"STUDY1","STUDY1-717-1446","TEMP","Temperature",99.4,"F"
"STUDY1","STUDY1-717-1446","TEMP","Temperature",98.4,"F"
"STUDY1","STUDY1-717-1446","TEMP","Temperature",96.8,"F"
"STUDY1","STUDY1-717-1446","TEMP","Temperature",98.2,"F"
"STUDY1","STUDY1-717-1446","TEMP","Temperature",98.2,"F"
"STUDY1","STUDY1-717-1446","TEMP","Temperature",98.2,"F"
"STUDY1","STUDY1-718-1066","TEMP","Temperature",96.4,"F"
"STUDY1","STUDY1-718-1066","TEMP","Temperature",96,"F"
"STUDY1","STUDY1-718-1066","TEMP","Temperature",96.6,"F"
"STUDY1","STUDY1-718-1066","TEMP","Temperature",96.5,"F"
"STUDY1","STUDY1-718-1079","TEMP","Temperature",97.3,"F"
"STUDY1","STUDY1-718-1079","TEMP","Temperature",95.9,"F"
"STUDY1","STUDY1-718-1079","TEMP","Temperature",97.5,"F"
"STUDY1","STUDY1-718-1079","TEMP","Temperature",96.7,"F"
"STUDY1","STUDY1-718-1079","TEMP","Temperature",97.1,"F"
"STUDY1","STUDY1-718-1079","TEMP","Temperature",97.4,"F"
"STUDY1","STUDY1-718-1079","TEMP","Temperature",97.1,"F"
"STUDY1","STUDY1-718-1079","TEMP","Temperature",97.6,"F"
"STUDY1","STUDY1-718-1079","TEMP","Temperature",97.6,"F"
"STUDY1","STUDY1-718-1101","TEMP","Temperature",94.8,"F"
"STUDY1","STUDY1-718-1101","TEMP","Temperature",96.4,"F"
"STUDY1","STUDY1-718-1101","TEMP","Temperature",96.1,"F"
"STUDY1","STUDY1-718-1101","TEMP","Temperature",96.6,"F"
"STUDY1","STUDY1-718-1101","TEMP","Temperature",95.8,"F"
"STUDY1","STUDY1-718-1101","TEMP","Temperature",97,"F"
"STUDY1","STUDY1-718-1101","TEMP","Temperature",95.8,"F"
"STUDY1","STUDY1-718-1101","TEMP","Temperature",96.9,"F"
"STUDY1","STUDY1-718-1101","TEMP","Temperature",97.4,"F"
"STUDY1","STUDY1-718-1101","TEMP","Temperature",96.8,"F"
"STUDY1","STUDY1-718-1101","TEMP","Temperature",96,"F"
"STUDY1","STUDY1-718-1101","TEMP","Temperature",95.1,"F"
"STUDY1","STUDY1-718-1101","TEMP","Temperature",97,"F"
"STUDY1","STUDY1-718-1139","TEMP","Temperature",95.3,"F"
"STUDY1","STUDY1-718-1139","TEMP","Temperature",95.2,"F"
"STUDY1","STUDY1-718-1139","TEMP","Temperature",95.9,"F"
"STUDY1","STUDY1-718-1139","TEMP","Temperature",96,"F"
"STUDY1","STUDY1-718-1139","TEMP","Temperature",95.5,"F"
"STUDY1","STUDY1-718-1139","TEMP","Temperature",96.2,"F"
"STUDY1","STUDY1-718-1139","TEMP","Temperature",96.2,"F"
"STUDY1","STUDY1-718-1139","TEMP","Temperature",96.6,"F"
"STUDY1","STUDY1-718-1139","TEMP","Temperature",96.6,"F"
"STUDY1","STUDY1-718-1139","TEMP","Temperature",95,"F"
"STUDY1","STUDY1-718-1139","TEMP","Temperature",97.2,"F"
"STUDY1","STUDY1-718-1139","TEMP","Temperature",95.6,"F"
"STUDY1","STUDY1-718-1139","TEMP","Temperature",97.2,"F"
"STUDY1","STUDY1-718-1139","TEMP","Temperature",95.4,"F"
"STUDY1","STUDY1-718-1150","TEMP","Temperature",95.1,"F"
"STUDY1","STUDY1-718-1150","TEMP","Temperature",96.4,"F"
"STUDY1","STUDY1-718-1150","TEMP","Temperature",97.3,"F"
"STUDY1","STUDY1-718-1150","TEMP","Temperature",96.6,"F"
"STUDY1","STUDY1-718-1150","TEMP","Temperature",96.4,"F"
"STUDY1","STUDY1-718-1150","TEMP","Temperature",95.5,"F"
"STUDY1","STUDY1-718-1150","TEMP","Temperature",98.2,"F"
"STUDY1","STUDY1-718-1150","TEMP","Temperature",96.2,"F"
"STUDY1","STUDY1-718-1150","TEMP","Temperature",97.7,"F"
"STUDY1","STUDY1-718-1150","TEMP","Temperature",96,"F"
"STUDY1","STUDY1-718-1150","TEMP","Temperature",96.4,"F"
"STUDY1","STUDY1-718-1150","TEMP","Temperature",96.7,"F"
"STUDY1","STUDY1-718-1170","TEMP","Temperature",96.7,"F"
"STUDY1","STUDY1-718-1170","TEMP","Temperature",95.5,"F"
"STUDY1","STUDY1-718-1170","TEMP","Temperature",95.9,"F"
"STUDY1","STUDY1-718-1170","TEMP","Temperature",95.1,"F"
"STUDY1","STUDY1-718-1170","TEMP","Temperature",96.8,"F"
"STUDY1","STUDY1-718-1170","TEMP","Temperature",95.6,"F"
"STUDY1","STUDY1-718-1170","TEMP","Temperature",96.1,"F"
"STUDY1","STUDY1-718-1172","TEMP","Temperature",97.1,"F"
"STUDY1","STUDY1-718-1172","TEMP","Temperature",97.5,"F"
"STUDY1","STUDY1-718-1172","TEMP","Temperature",96.4,"F"
"STUDY1","STUDY1-718-1172","TEMP","Temperature",96.4,"F"
"STUDY1","STUDY1-718-1172","TEMP","Temperature",97.6,"F"
"STUDY1","STUDY1-718-1172","TEMP","Temperature",95.9,"F"
"STUDY1","STUDY1-718-1172","TEMP","Temperature",95.8,"F"
"STUDY1","STUDY1-718-1172","TEMP","Temperature",98,"F"
"STUDY1","STUDY1-718-1172","TEMP","Temperature",96.2,"F"
"STUDY1","STUDY1-718-1172","TEMP","Temperature",96.6,"F"
"STUDY1","STUDY1-718-1172","TEMP","Temperature",98.5,"F"
"STUDY1","STUDY1-718-1250","TEMP","Temperature",97.6,"F"
"STUDY1","STUDY1-718-1250","TEMP","Temperature",97.9,"F"
"STUDY1","STUDY1-718-1250","TEMP","Temperature",96.7,"F"
"STUDY1","STUDY1-718-1250","TEMP","Temperature",98.2,"F"
"STUDY1","STUDY1-718-1250","TEMP","Temperature",96,"F"
"STUDY1","STUDY1-718-1250","TEMP","Temperature",96.4,"F"
"STUDY1","STUDY1-718-1250","TEMP","Temperature",99.5,"F"
"STUDY1","STUDY1-718-1250","TEMP","Temperature",97.1,"F"
"STUDY1","STUDY1-718-1250","TEMP","Temperature",96.4,"F"
"STUDY1","STUDY1-718-1250","TEMP","Temperature",97.7,"F"
"STUDY1","STUDY1-718-1250","TEMP","Temperature",96.7,"F"
"STUDY1","STUDY1-718-1250","TEMP","Temperature",97.9,"F"
"STUDY1","STUDY1-718-1250","TEMP","Temperature",96.7,"F"
"STUDY1","STUDY1-718-1254","TEMP","Temperature",97.3,"F"
"STUDY1","STUDY1-718-1254","TEMP","Temperature",96.2,"F"
"STUDY1","STUDY1-718-1254","TEMP","Temperature",96.3,"F"
"STUDY1","STUDY1-718-1254","TEMP","Temperature",95.7,"F"
"STUDY1","STUDY1-718-1254","TEMP","Temperature",96.3,"F"
"STUDY1","STUDY1-718-1254","TEMP","Temperature",96.2,"F"
"STUDY1","STUDY1-718-1254","TEMP","Temperature",98.3,"F"
"STUDY1","STUDY1-718-1254","TEMP","Temperature",96.2,"F"
"STUDY1","STUDY1-718-1254","TEMP","Temperature",96.4,"F"
"STUDY1","STUDY1-718-1254","TEMP","Temperature",97,"F"
"STUDY1","STUDY1-718-1254","TEMP","Temperature",97.2,"F"
"STUDY1","STUDY1-718-1254","TEMP","Temperature",95.8,"F"
"STUDY1","STUDY1-718-1254","TEMP","Temperature",97.1,"F"
"STUDY1","STUDY1-718-1254","TEMP","Temperature",95.6,"F"
"STUDY1","STUDY1-718-1328","TEMP","Temperature",96.9,"F"
"STUDY1","STUDY1-718-1328","TEMP","Temperature",96.1,"F"
"STUDY1","STUDY1-718-1328","TEMP","Temperature",97.5,"F"
"STUDY1","STUDY1-718-1328","TEMP","Temperature",96.8,"F"
"STUDY1","STUDY1-718-1328","TEMP","Temperature",95.5,"F"
"STUDY1","STUDY1-718-1328","TEMP","Temperature",98,"F"
"STUDY1","STUDY1-718-1328","TEMP","Temperature",96.2,"F"
"STUDY1","STUDY1-718-1328","TEMP","Temperature",97,"F"
"STUDY1","STUDY1-718-1328","TEMP","Temperature",96.9,"F"
"STUDY1","STUDY1-718-1328","TEMP","Temperature",97.6,"F"
"STUDY1","STUDY1-718-1355","TEMP","Temperature",96.2,"F"
"STUDY1","STUDY1-718-1355","TEMP","Temperature",97.2,"F"
"STUDY1","STUDY1-718-1355","TEMP","Temperature",97.5,"F"
"STUDY1","STUDY1-718-1355","TEMP","Temperature",97,"F"
"STUDY1","STUDY1-718-1355","TEMP","Temperature",96.4,"F"
"STUDY1","STUDY1-718-1355","TEMP","Temperature",97.9,"F"
"STUDY1","STUDY1-718-1355","TEMP","Temperature",100.1,"F"
"STUDY1","STUDY1-718-1355","TEMP","Temperature",98,"F"
"STUDY1","STUDY1-718-1355","TEMP","Temperature",96.5,"F"
"STUDY1","STUDY1-718-1355","TEMP","Temperature",96.9,"F"
"STUDY1","STUDY1-718-1355","TEMP","Temperature",97,"F"
"STUDY1","STUDY1-718-1355","TEMP","Temperature",99.1,"F"
"STUDY1","STUDY1-718-1355","TEMP","Temperature",99.6,"F"
"STUDY1","STUDY1-718-1355","TEMP","Temperature",97.2,"F"
"STUDY1","STUDY1-718-1371","TEMP","Temperature",98.6,"F"
"STUDY1","STUDY1-718-1371","TEMP","Temperature",98.2,"F"
"STUDY1","STUDY1-718-1371","TEMP","Temperature",97.6,"F"
"STUDY1","STUDY1-718-1371","TEMP","Temperature",96.5,"F"
"STUDY1","STUDY1-718-1371","TEMP","Temperature",97.1,"F"
"STUDY1","STUDY1-718-1371","TEMP","Temperature",97.1,"F"
"STUDY1","STUDY1-718-1371","TEMP","Temperature",96.3,"F"
"STUDY1","STUDY1-718-1371","TEMP","Temperature",96.6,"F"
"STUDY1","STUDY1-718-1371","TEMP","Temperature",96.6,"F"
"STUDY1","STUDY1-718-1427","TEMP","Temperature",96.5,"F"
"STUDY1","STUDY1-718-1427","TEMP","Temperature",96.3,"F"
"STUDY1","STUDY1-718-1427","TEMP","Temperature",96.8,"F"
"STUDY1","STUDY1-718-1427","TEMP","Temperature",97.9,"F"
"STUDY1","STUDY1-718-1427","TEMP","Temperature",96.6,"F"
"STUDY1","STUDY1-718-1427","TEMP","Temperature",97.3,"F"
"STUDY1","STUDY1-718-1427","TEMP","Temperature",96.6,"F"
"STUDY1","STUDY1-718-1427","TEMP","Temperature",97.2,"F"
"STUDY1","STUDY1-718-1427","TEMP","Temperature",96.4,"F"
"STUDY1","STUDY1-718-1427","TEMP","Temperature",97.4,"F"
"STUDY1","STUDY1-701-1015","SYSBP","Systolic Blood Pressure",131,"mmHg"
"STUDY1","STUDY1-701-1015","SYSBP","Systolic Blood Pressure",129,"mmHg"
"STUDY1","STUDY1-701-1015","SYSBP","Systolic Blood Pressure",147,"mmHg"
"STUDY1","STUDY1-701-1015","SYSBP","Systolic Blood Pressure",138,"mmHg"
"STUDY1","STUDY1-701-1015","SYSBP","Systolic Blood Pressure",137,"mmHg"
"STUDY1","STUDY1-701-1015","SYSBP","Systolic Blood Pressure",145,"mmHg"
"STUDY1","STUDY1-701-1015","SYSBP","Systolic Blood Pressure",130,"mmHg"
"STUDY1","STUDY1-701-1015","SYSBP","Systolic Blood Pressure",121,"mmHg"
"STUDY1","STUDY1-701-1015","SYSBP","Systolic Blood Pressure",131,"mmHg"
"STUDY1","STUDY1-701-1015","SYSBP","Systolic Blood Pressure",137,"mmHg"
"STUDY1","STUDY1-701-1015","SYSBP","Systolic Blood Pressure",127,"mmHg"
"STUDY1","STUDY1-701-1015","SYSBP","Systolic Blood Pressure",146,"mmHg"
"STUDY1","STUDY1-701-1015","SYSBP","Systolic Blood Pressure",114,"mmHg"
"STUDY1","STUDY1-701-1015","SYSBP","Systolic Blood Pressure",121,"mmHg"
"STUDY1","STUDY1-701-1015","SYSBP","Systolic Blood Pressure",132,"mmHg"
"STUDY1","STUDY1-701-1015","SYSBP","Systolic Blood Pressure",138,"mmHg"
"STUDY1","STUDY1-701-1015","SYSBP","Systolic Blood Pressure",137,"mmHg"
"STUDY1","STUDY1-701-1015","SYSBP","Systolic Blood Pressure",132,"mmHg"
"STUDY1","STUDY1-701-1015","SYSBP","Systolic Blood Pressure",138,"mmHg"
"STUDY1","STUDY1-701-1015","SYSBP","Systolic Blood Pressure",131,"mmHg"
"STUDY1","STUDY1-701-1015","SYSBP","Systolic Blood Pressure",123,"mmHg"
"STUDY1","STUDY1-701-1015","SYSBP","Systolic Blood Pressure",148,"mmHg"
"STUDY1","STUDY1-701-1015","SYSBP","Systolic Blood Pressure",137,"mmHg"
"STUDY1","STUDY1-701-1015","SYSBP","Systolic Blood Pressure",138,"mmHg"
"STUDY1","STUDY1-701-1015","SYSBP","Systolic Blood Pressure",138,"mmHg"
"STUDY1","STUDY1-701-1015","SYSBP","Systolic Blood Pressure",146,"mmHg"
"STUDY1","STUDY1-701-1015","SYSBP","Systolic Blood Pressure",140,"mmHg"
"STUDY1","STUDY1-701-1015","SYSBP","Systolic Blood Pressure",139,"mmHg"
"STUDY1","STUDY1-701-1015","SYSBP","Systolic Blood Pressure",146,"mmHg"
"STUDY1","STUDY1-701-1015","SYSBP","Systolic Blood Pressure",138,"mmHg"
"STUDY1","STUDY1-701-1015","SYSBP","Systolic Blood Pressure",163,"mmHg"
"STUDY1","STUDY1-701-1015","SYSBP","Systolic Blood Pressure",145,"mmHg"
"STUDY1","STUDY1-701-1015","SYSBP","Systolic Blood Pressure",152,"mmHg"
"STUDY1","STUDY1-701-1015","SYSBP","Systolic Blood Pressure",137,"mmHg"
"STUDY1","STUDY1-701-1015","SYSBP","Systolic Blood Pressure",139,"mmHg"
"STUDY1","STUDY1-701-1015","SYSBP","Systolic Blood Pressure",136,"mmHg"
"STUDY1","STUDY1-701-1015","SYSBP","Systolic Blood Pressure",129,"mmHg"
"STUDY1","STUDY1-701-1015","SYSBP","Systolic Blood Pressure",131,"mmHg"
"STUDY1","STUDY1-701-1015","SYSBP","Systolic Blood Pressure",137,"mmHg"
"STUDY1","STUDY1-701-1015","SYSBP","Systolic Blood Pressure",127,"mmHg"
"STUDY1","STUDY1-701-1015","SYSBP","Systolic Blood Pressure",128,"mmHg"
"STUDY1","STUDY1-701-1015","SYSBP","Systolic Blood Pressure",129,"mmHg"
"STUDY1","STUDY1-701-1023","SYSBP","Systolic Blood Pressure",130,"mmHg"
"STUDY1","STUDY1-701-1023","SYSBP","Systolic Blood Pressure",132,"mmHg"
"STUDY1","STUDY1-701-1023","SYSBP","Systolic Blood Pressure",140,"mmHg"
"STUDY1","STUDY1-701-1023","SYSBP","Systolic Blood Pressure",131,"mmHg"
"STUDY1","STUDY1-701-1023","SYSBP","Systolic Blood Pressure",129,"mmHg"
"STUDY1","STUDY1-701-1023","SYSBP","Systolic Blood Pressure",138,"mmHg"
"STUDY1","STUDY1-701-1023","SYSBP","Systolic Blood Pressure",130,"mmHg"
"STUDY1","STUDY1-701-1023","SYSBP","Systolic Blood Pressure",132,"mmHg"
"STUDY1","STUDY1-701-1023","SYSBP","Systolic Blood Pressure",132,"mmHg"
"STUDY1","STUDY1-701-1023","SYSBP","Systolic Blood Pressure",133,"mmHg"
"STUDY1","STUDY1-701-1023","SYSBP","Systolic Blood Pressure",130,"mmHg"
"STUDY1","STUDY1-701-1023","SYSBP","Systolic Blood Pressure",138,"mmHg"
"STUDY1","STUDY1-701-1023","SYSBP","Systolic Blood Pressure",122,"mmHg"
"STUDY1","STUDY1-701-1023","SYSBP","Systolic Blood Pressure",130,"mmHg"
"STUDY1","STUDY1-701-1023","SYSBP","Systolic Blood Pressure",138,"mmHg"
"STUDY1","STUDY1-701-1023","SYSBP","Systolic Blood Pressure",130,"mmHg"
"STUDY1","STUDY1-701-1023","SYSBP","Systolic Blood Pressure",134,"mmHg"
"STUDY1","STUDY1-701-1023","SYSBP","Systolic Blood Pressure",136,"mmHg"
"STUDY1","STUDY1-701-1023","SYSBP","Systolic Blood Pressure",125,"mmHg"
"STUDY1","STUDY1-701-1023","SYSBP","Systolic Blood Pressure",110,"mmHg"
"STUDY1","STUDY1-701-1023","SYSBP","Systolic Blood Pressure",130,"mmHg"
"STUDY1","STUDY1-701-1028","SYSBP","Systolic Blood Pressure",143,"mmHg"
"STUDY1","STUDY1-701-1028","SYSBP","Systolic Blood Pressure",140,"mmHg"
"STUDY1","STUDY1-701-1028","SYSBP","Systolic Blood Pressure",132,"mmHg"
"STUDY1","STUDY1-701-1028","SYSBP","Systolic Blood Pressure",122,"mmHg"
"STUDY1","STUDY1-701-1028","SYSBP","Systolic Blood Pressure",142,"mmHg"
"STUDY1","STUDY1-701-1028","SYSBP","Systolic Blood Pressure",132,"mmHg"
"STUDY1","STUDY1-701-1028","SYSBP","Systolic Blood Pressure",138,"mmHg"
"STUDY1","STUDY1-701-1028","SYSBP","Systolic Blood Pressure",145,"mmHg"
"STUDY1","STUDY1-701-1028","SYSBP","Systolic Blood Pressure",139,"mmHg"
"STUDY1","STUDY1-701-1028","SYSBP","Systolic Blood Pressure",138,"mmHg"
"STUDY1","STUDY1-701-1028","SYSBP","Systolic Blood Pressure",137,"mmHg"
"STUDY1","STUDY1-701-1028","SYSBP","Systolic Blood Pressure",145,"mmHg"
"STUDY1","STUDY1-701-1028","SYSBP","Systolic Blood Pressure",134,"mmHg"
"STUDY1","STUDY1-701-1028","SYSBP","Systolic Blood Pressure",138,"mmHg"
"STUDY1","STUDY1-701-1028","SYSBP","Systolic Blood Pressure",131,"mmHg"
"STUDY1","STUDY1-701-1028","SYSBP","Systolic Blood Pressure",130,"mmHg"
"STUDY1","STUDY1-701-1028","SYSBP","Systolic Blood Pressure",130,"mmHg"
"STUDY1","STUDY1-701-1028","SYSBP","Systolic Blood Pressure",138,"mmHg"
"STUDY1","STUDY1-701-1028","SYSBP","Systolic Blood Pressure",138,"mmHg"
"STUDY1","STUDY1-701-1028","SYSBP","Systolic Blood Pressure",138,"mmHg"
"STUDY1","STUDY1-701-1028","SYSBP","Systolic Blood Pressure",146,"mmHg"
"STUDY1","STUDY1-701-1028","SYSBP","Systolic Blood Pressure",131,"mmHg"
"STUDY1","STUDY1-701-1028","SYSBP","Systolic Blood Pressure",131,"mmHg"
"STUDY1","STUDY1-701-1028","SYSBP","Systolic Blood Pressure",132,"mmHg"
"STUDY1","STUDY1-701-1028","SYSBP","Systolic Blood Pressure",137,"mmHg"
"STUDY1","STUDY1-701-1028","SYSBP","Systolic Blood Pressure",146,"mmHg"
"STUDY1","STUDY1-701-1028","SYSBP","Systolic Blood Pressure",130,"mmHg"
"STUDY1","STUDY1-701-1028","SYSBP","Systolic Blood Pressure",128,"mmHg"
"STUDY1","STUDY1-701-1028","SYSBP","Systolic Blood Pressure",137,"mmHg"
"STUDY1","STUDY1-701-1028","SYSBP","Systolic Blood Pressure",138,"mmHg"
"STUDY1","STUDY1-701-1028","SYSBP","Systolic Blood Pressure",122,"mmHg"
"STUDY1","STUDY1-701-1028","SYSBP","Systolic Blood Pressure",130,"mmHg"
"STUDY1","STUDY1-701-1028","SYSBP","Systolic Blood Pressure",132,"mmHg"
"STUDY1","STUDY1-701-1028","SYSBP","Systolic Blood Pressure",129,"mmHg"
"STUDY1","STUDY1-701-1028","SYSBP","Systolic Blood Pressure",123,"mmHg"
"STUDY1","STUDY1-701-1028","SYSBP","Systolic Blood Pressure",131,"mmHg"
"STUDY1","STUDY1-701-1028","SYSBP","Systolic Blood Pressure",130,"mmHg"
"STUDY1","STUDY1-701-1028","SYSBP","Systolic Blood Pressure",133,"mmHg"
"STUDY1","STUDY1-701-1028","SYSBP","Systolic Blood Pressure",131,"mmHg"
"STUDY1","STUDY1-701-1028","SYSBP","Systolic Blood Pressure",131,"mmHg"
"STUDY1","STUDY1-701-1028","SYSBP","Systolic Blood Pressure",118,"mmHg"
"STUDY1","STUDY1-701-1028","SYSBP","Systolic Blood Pressure",131,"mmHg"
"STUDY1","STUDY1-701-1033","SYSBP","Systolic Blood Pressure",128,"mmHg"
"STUDY1","STUDY1-701-1033","SYSBP","Systolic Blood Pressure",117,"mmHg"
"STUDY1","STUDY1-701-1033","SYSBP","Systolic Blood Pressure",121,"mmHg"
"STUDY1","STUDY1-701-1033","SYSBP","Systolic Blood Pressure",115,"mmHg"
"STUDY1","STUDY1-701-1033","SYSBP","Systolic Blood Pressure",102,"mmHg"
"STUDY1","STUDY1-701-1033","SYSBP","Systolic Blood Pressure",124,"mmHg"
"STUDY1","STUDY1-701-1033","SYSBP","Systolic Blood Pressure",136,"mmHg"
"STUDY1","STUDY1-701-1033","SYSBP","Systolic Blood Pressure",116,"mmHg"
"STUDY1","STUDY1-701-1033","SYSBP","Systolic Blood Pressure",121,"mmHg"
"STUDY1","STUDY1-701-1033","SYSBP","Systolic Blood Pressure",151,"mmHg"
"STUDY1","STUDY1-701-1033","SYSBP","Systolic Blood Pressure",139,"mmHg"
"STUDY1","STUDY1-701-1033","SYSBP","Systolic Blood Pressure",139,"mmHg"
"STUDY1","STUDY1-701-1033","SYSBP","Systolic Blood Pressure",138,"mmHg"
"STUDY1","STUDY1-701-1033","SYSBP","Systolic Blood Pressure",118,"mmHg"
"STUDY1","STUDY1-701-1033","SYSBP","Systolic Blood Pressure",130,"mmHg"
"STUDY1","STUDY1-701-1033","SYSBP","Systolic Blood Pressure",130,"mmHg"
"STUDY1","STUDY1-701-1033","SYSBP","Systolic Blood Pressure",122,"mmHg"
"STUDY1","STUDY1-701-1033","SYSBP","Systolic Blood Pressure",125,"mmHg"
"STUDY1","STUDY1-701-1033","SYSBP","Systolic Blood Pressure",130,"mmHg"
"STUDY1","STUDY1-701-1033","SYSBP","Systolic Blood Pressure",122,"mmHg"
"STUDY1","STUDY1-701-1033","SYSBP","Systolic Blood Pressure",123,"mmHg"
"STUDY1","STUDY1-701-1034","SYSBP","Systolic Blood Pressure",160,"mmHg"
"STUDY1","STUDY1-701-1034","SYSBP","Systolic Blood Pressure",183,"mmHg"
"STUDY1","STUDY1-701-1034","SYSBP","Systolic Blood Pressure",151,"mmHg"
"STUDY1","STUDY1-701-1034","SYSBP","Systolic Blood Pressure",158,"mmHg"
"STUDY1","STUDY1-701-1034","SYSBP","Systolic Blood Pressure",155,"mmHg"
"STUDY1","STUDY1-701-1034","SYSBP","Systolic Blood Pressure",155,"mmHg"
"STUDY1","STUDY1-701-1034","SYSBP","Systolic Blood Pressure",163,"mmHg"
"STUDY1","STUDY1-701-1034","SYSBP","Systolic Blood Pressure",177,"mmHg"
"STUDY1","STUDY1-701-1034","SYSBP","Systolic Blood Pressure",168,"mmHg"
"STUDY1","STUDY1-701-1034","SYSBP","Systolic Blood Pressure",183,"mmHg"
"STUDY1","STUDY1-701-1034","SYSBP","Systolic Blood Pressure",191,"mmHg"
"STUDY1","STUDY1-701-1034","SYSBP","Systolic Blood Pressure",161,"mmHg"
"STUDY1","STUDY1-701-1034","SYSBP","Systolic Blood Pressure",165,"mmHg"
"STUDY1","STUDY1-701-1034","SYSBP","Systolic Blood Pressure",170,"mmHg"
"STUDY1","STUDY1-701-1034","SYSBP","Systolic Blood Pressure",169,"mmHg"
"STUDY1","STUDY1-701-1034","SYSBP","Systolic Blood Pressure",140,"mmHg"
"STUDY1","STUDY1-701-1034","SYSBP","Systolic Blood Pressure",166,"mmHg"
"STUDY1","STUDY1-701-1034","SYSBP","Systolic Blood Pressure",159,"mmHg"
"STUDY1","STUDY1-701-1034","SYSBP","Systolic Blood Pressure",145,"mmHg"
"STUDY1","STUDY1-701-1034","SYSBP","Systolic Blood Pressure",174,"mmHg"
"STUDY1","STUDY1-701-1034","SYSBP","Systolic Blood Pressure",170,"mmHg"
"STUDY1","STUDY1-701-1034","SYSBP","Systolic Blood Pressure",188,"mmHg"
"STUDY1","STUDY1-701-1034","SYSBP","Systolic Blood Pressure",197,"mmHg"
"STUDY1","STUDY1-701-1034","SYSBP","Systolic Blood Pressure",198,"mmHg"
"STUDY1","STUDY1-701-1034","SYSBP","Systolic Blood Pressure",145,"mmHg"
"STUDY1","STUDY1-701-1034","SYSBP","Systolic Blood Pressure",150,"mmHg"
"STUDY1","STUDY1-701-1034","SYSBP","Systolic Blood Pressure",177,"mmHg"
"STUDY1","STUDY1-701-1034","SYSBP","Systolic Blood Pressure",154,"mmHg"
"STUDY1","STUDY1-701-1034","SYSBP","Systolic Blood Pressure",183,"mmHg"
"STUDY1","STUDY1-701-1034","SYSBP","Systolic Blood Pressure",186,"mmHg"
"STUDY1","STUDY1-701-1034","SYSBP","Systolic Blood Pressure",167,"mmHg"
"STUDY1","STUDY1-701-1034","SYSBP","Systolic Blood Pressure",181,"mmHg"
"STUDY1","STUDY1-701-1034","SYSBP","Systolic Blood Pressure",185,"mmHg"
"STUDY1","STUDY1-701-1034","SYSBP","Systolic Blood Pressure",178,"mmHg"
"STUDY1","STUDY1-701-1034","SYSBP","Systolic Blood Pressure",198,"mmHg"
"STUDY1","STUDY1-701-1034","SYSBP","Systolic Blood Pressure",164,"mmHg"
"STUDY1","STUDY1-701-1034","SYSBP","Systolic Blood Pressure",154,"mmHg"
"STUDY1","STUDY1-701-1034","SYSBP","Systolic Blood Pressure",150,"mmHg"
"STUDY1","STUDY1-701-1034","SYSBP","Systolic Blood Pressure",179,"mmHg"
"STUDY1","STUDY1-701-1047","SYSBP","Systolic Blood Pressure",165,"mmHg"
"STUDY1","STUDY1-701-1047","SYSBP","Systolic Blood Pressure",162,"mmHg"
"STUDY1","STUDY1-701-1047","SYSBP","Systolic Blood Pressure",161,"mmHg"
"STUDY1","STUDY1-701-1047","SYSBP","Systolic Blood Pressure",159,"mmHg"
"STUDY1","STUDY1-701-1047","SYSBP","Systolic Blood Pressure",152,"mmHg"
"STUDY1","STUDY1-701-1047","SYSBP","Systolic Blood Pressure",138,"mmHg"
"STUDY1","STUDY1-701-1047","SYSBP","Systolic Blood Pressure",151,"mmHg"
"STUDY1","STUDY1-701-1047","SYSBP","Systolic Blood Pressure",145,"mmHg"
"STUDY1","STUDY1-701-1047","SYSBP","Systolic Blood Pressure",167,"mmHg"
"STUDY1","STUDY1-701-1047","SYSBP","Systolic Blood Pressure",146,"mmHg"
"STUDY1","STUDY1-701-1047","SYSBP","Systolic Blood Pressure",137,"mmHg"
"STUDY1","STUDY1-701-1047","SYSBP","Systolic Blood Pressure",148,"mmHg"
"STUDY1","STUDY1-701-1047","SYSBP","Systolic Blood Pressure",145,"mmHg"
"STUDY1","STUDY1-701-1047","SYSBP","Systolic Blood Pressure",146,"mmHg"
"STUDY1","STUDY1-701-1047","SYSBP","Systolic Blood Pressure",153,"mmHg"
"STUDY1","STUDY1-701-1047","SYSBP","Systolic Blood Pressure",135,"mmHg"
"STUDY1","STUDY1-701-1047","SYSBP","Systolic Blood Pressure",145,"mmHg"
"STUDY1","STUDY1-701-1047","SYSBP","Systolic Blood Pressure",143,"mmHg"
"STUDY1","STUDY1-701-1047","SYSBP","Systolic Blood Pressure",123,"mmHg"
"STUDY1","STUDY1-701-1047","SYSBP","Systolic Blood Pressure",115,"mmHg"
"STUDY1","STUDY1-701-1047","SYSBP","Systolic Blood Pressure",123,"mmHg"
"STUDY1","STUDY1-701-1047","SYSBP","Systolic Blood Pressure",139,"mmHg"
"STUDY1","STUDY1-701-1047","SYSBP","Systolic Blood Pressure",130,"mmHg"
"STUDY1","STUDY1-701-1047","SYSBP","Systolic Blood Pressure",139,"mmHg"
"STUDY1","STUDY1-701-1097","SYSBP","Systolic Blood Pressure",138,"mmHg"
"STUDY1","STUDY1-701-1097","SYSBP","Systolic Blood Pressure",137,"mmHg"
"STUDY1","STUDY1-701-1097","SYSBP","Systolic Blood Pressure",139,"mmHg"
"STUDY1","STUDY1-701-1097","SYSBP","Systolic Blood Pressure",131,"mmHg"
"STUDY1","STUDY1-701-1097","SYSBP","Systolic Blood Pressure",138,"mmHg"
"STUDY1","STUDY1-701-1097","SYSBP","Systolic Blood Pressure",138,"mmHg"
"STUDY1","STUDY1-701-1097","SYSBP","Systolic Blood Pressure",128,"mmHg"
"STUDY1","STUDY1-701-1097","SYSBP","Systolic Blood Pressure",130,"mmHg"
"STUDY1","STUDY1-701-1097","SYSBP","Systolic Blood Pressure",132,"mmHg"
"STUDY1","STUDY1-701-1097","SYSBP","Systolic Blood Pressure",121,"mmHg"
"STUDY1","STUDY1-701-1097","SYSBP","Systolic Blood Pressure",144,"mmHg"
"STUDY1","STUDY1-701-1097","SYSBP","Systolic Blood Pressure",130,"mmHg"
"STUDY1","STUDY1-701-1097","SYSBP","Systolic Blood Pressure",124,"mmHg"
"STUDY1","STUDY1-701-1097","SYSBP","Systolic Blood Pressure",130,"mmHg"
"STUDY1","STUDY1-701-1097","SYSBP","Systolic Blood Pressure",132,"mmHg"
"STUDY1","STUDY1-701-1097","SYSBP","Systolic Blood Pressure",137,"mmHg"
"STUDY1","STUDY1-701-1097","SYSBP","Systolic Blood Pressure",134,"mmHg"
"STUDY1","STUDY1-701-1097","SYSBP","Systolic Blood Pressure",137,"mmHg"
"STUDY1","STUDY1-701-1097","SYSBP","Systolic Blood Pressure",132,"mmHg"
"STUDY1","STUDY1-701-1097","SYSBP","Systolic Blood Pressure",132,"mmHg"
"STUDY1","STUDY1-701-1097","SYSBP","Systolic Blood Pressure",138,"mmHg"
"STUDY1","STUDY1-701-1097","SYSBP","Systolic Blood Pressure",122,"mmHg"
"STUDY1","STUDY1-701-1097","SYSBP","Systolic Blood Pressure",124,"mmHg"
"STUDY1","STUDY1-701-1097","SYSBP","Systolic Blood Pressure",124,"mmHg"
"STUDY1","STUDY1-701-1097","SYSBP","Systolic Blood Pressure",136,"mmHg"
"STUDY1","STUDY1-701-1097","SYSBP","Systolic Blood Pressure",130,"mmHg"
"STUDY1","STUDY1-701-1097","SYSBP","Systolic Blood Pressure",131,"mmHg"
"STUDY1","STUDY1-701-1097","SYSBP","Systolic Blood Pressure",121,"mmHg"
"STUDY1","STUDY1-701-1097","SYSBP","Systolic Blood Pressure",132,"mmHg"
"STUDY1","STUDY1-701-1097","SYSBP","Systolic Blood Pressure",139,"mmHg"
"STUDY1","STUDY1-701-1097","SYSBP","Systolic Blood Pressure",132,"mmHg"
"STUDY1","STUDY1-701-1097","SYSBP","Systolic Blood Pressure",138,"mmHg"
"STUDY1","STUDY1-701-1097","SYSBP","Systolic Blood Pressure",139,"mmHg"
"STUDY1","STUDY1-701-1097","SYSBP","Systolic Blood Pressure",121,"mmHg"
"STUDY1","STUDY1-701-1097","SYSBP","Systolic Blood Pressure",112,"mmHg"
"STUDY1","STUDY1-701-1097","SYSBP","Systolic Blood Pressure",115,"mmHg"
"STUDY1","STUDY1-701-1097","SYSBP","Systolic Blood Pressure",137,"mmHg"
"STUDY1","STUDY1-701-1097","SYSBP","Systolic Blood Pressure",131,"mmHg"
"STUDY1","STUDY1-701-1097","SYSBP","Systolic Blood Pressure",130,"mmHg"
"STUDY1","STUDY1-701-1097","SYSBP","Systolic Blood Pressure",123,"mmHg"
"STUDY1","STUDY1-701-1097","SYSBP","Systolic Blood Pressure",132,"mmHg"
"STUDY1","STUDY1-701-1097","SYSBP","Systolic Blood Pressure",131,"mmHg"
"STUDY1","STUDY1-701-1111","SYSBP","Systolic Blood Pressure",137,"mmHg"
"STUDY1","STUDY1-701-1111","SYSBP","Systolic Blood Pressure",129,"mmHg"
"STUDY1","STUDY1-701-1111","SYSBP","Systolic Blood Pressure",122,"mmHg"
"STUDY1","STUDY1-701-1111","SYSBP","Systolic Blood Pressure",137,"mmHg"
"STUDY1","STUDY1-701-1111","SYSBP","Systolic Blood Pressure",121,"mmHg"
"STUDY1","STUDY1-701-1111","SYSBP","Systolic Blood Pressure",129,"mmHg"
"STUDY1","STUDY1-701-1111","SYSBP","Systolic Blood Pressure",129,"mmHg"
"STUDY1","STUDY1-701-1111","SYSBP","Systolic Blood Pressure",136,"mmHg"
"STUDY1","STUDY1-701-1111","SYSBP","Systolic Blood Pressure",135,"mmHg"
"STUDY1","STUDY1-701-1111","SYSBP","Systolic Blood Pressure",125,"mmHg"
"STUDY1","STUDY1-701-1111","SYSBP","Systolic Blood Pressure",112,"mmHg"
"STUDY1","STUDY1-701-1111","SYSBP","Systolic Blood Pressure",110,"mmHg"
"STUDY1","STUDY1-701-1111","SYSBP","Systolic Blood Pressure",138,"mmHg"
"STUDY1","STUDY1-701-1111","SYSBP","Systolic Blood Pressure",130,"mmHg"
"STUDY1","STUDY1-701-1111","SYSBP","Systolic Blood Pressure",130,"mmHg"
"STUDY1","STUDY1-701-1115","SYSBP","Systolic Blood Pressure",137,"mmHg"
"STUDY1","STUDY1-701-1115","SYSBP","Systolic Blood Pressure",130,"mmHg"
"STUDY1","STUDY1-701-1115","SYSBP","Systolic Blood Pressure",131,"mmHg"
"STUDY1","STUDY1-701-1115","SYSBP","Systolic Blood Pressure",137,"mmHg"
"STUDY1","STUDY1-701-1115","SYSBP","Systolic Blood Pressure",130,"mmHg"
"STUDY1","STUDY1-701-1115","SYSBP","Systolic Blood Pressure",115,"mmHg"
"STUDY1","STUDY1-701-1115","SYSBP","Systolic Blood Pressure",130,"mmHg"
"STUDY1","STUDY1-701-1115","SYSBP","Systolic Blood Pressure",106,"mmHg"
"STUDY1","STUDY1-701-1115","SYSBP","Systolic Blood Pressure",110,"mmHg"
"STUDY1","STUDY1-701-1115","SYSBP","Systolic Blood Pressure",144,"mmHg"
"STUDY1","STUDY1-701-1115","SYSBP","Systolic Blood Pressure",120,"mmHg"
"STUDY1","STUDY1-701-1115","SYSBP","Systolic Blood Pressure",116,"mmHg"
"STUDY1","STUDY1-701-1115","SYSBP","Systolic Blood Pressure",122,"mmHg"
"STUDY1","STUDY1-701-1115","SYSBP","Systolic Blood Pressure",119,"mmHg"
"STUDY1","STUDY1-701-1115","SYSBP","Systolic Blood Pressure",100,"mmHg"
"STUDY1","STUDY1-701-1115","SYSBP","Systolic Blood Pressure",115,"mmHg"
"STUDY1","STUDY1-701-1115","SYSBP","Systolic Blood Pressure",98,"mmHg"
"STUDY1","STUDY1-701-1115","SYSBP","Systolic Blood Pressure",95,"mmHg"
"STUDY1","STUDY1-701-1115","SYSBP","Systolic Blood Pressure",122,"mmHg"
"STUDY1","STUDY1-701-1115","SYSBP","Systolic Blood Pressure",96,"mmHg"
"STUDY1","STUDY1-701-1115","SYSBP","Systolic Blood Pressure",99,"mmHg"
"STUDY1","STUDY1-701-1115","SYSBP","Systolic Blood Pressure",131,"mmHg"
"STUDY1","STUDY1-701-1115","SYSBP","Systolic Blood Pressure",107,"mmHg"
"STUDY1","STUDY1-701-1115","SYSBP","Systolic Blood Pressure",104,"mmHg"
"STUDY1","STUDY1-701-1115","SYSBP","Systolic Blood Pressure",123,"mmHg"
"STUDY1","STUDY1-701-1115","SYSBP","Systolic Blood Pressure",113,"mmHg"
"STUDY1","STUDY1-701-1115","SYSBP","Systolic Blood Pressure",98,"mmHg"
"STUDY1","STUDY1-701-1115","SYSBP","Systolic Blood Pressure",99,"mmHg"
"STUDY1","STUDY1-701-1115","SYSBP","Systolic Blood Pressure",99,"mmHg"
"STUDY1","STUDY1-701-1115","SYSBP","Systolic Blood Pressure",99,"mmHg"
"STUDY1","STUDY1-701-1118","SYSBP","Systolic Blood Pressure",122,"mmHg"
"STUDY1","STUDY1-701-1118","SYSBP","Systolic Blood Pressure",106,"mmHg"
"STUDY1","STUDY1-701-1118","SYSBP","Systolic Blood Pressure",107,"mmHg"
"STUDY1","STUDY1-701-1118","SYSBP","Systolic Blood Pressure",138,"mmHg"
"STUDY1","STUDY1-701-1118","SYSBP","Systolic Blood Pressure",137,"mmHg"
"STUDY1","STUDY1-701-1118","SYSBP","Systolic Blood Pressure",138,"mmHg"
"STUDY1","STUDY1-701-1118","SYSBP","Systolic Blood Pressure",137,"mmHg"
"STUDY1","STUDY1-701-1118","SYSBP","Systolic Blood Pressure",129,"mmHg"
"STUDY1","STUDY1-701-1118","SYSBP","Systolic Blood Pressure",123,"mmHg"
"STUDY1","STUDY1-701-1118","SYSBP","Systolic Blood Pressure",131,"mmHg"
"STUDY1","STUDY1-701-1118","SYSBP","Systolic Blood Pressure",126,"mmHg"
"STUDY1","STUDY1-701-1118","SYSBP","Systolic Blood Pressure",138,"mmHg"
"STUDY1","STUDY1-701-1118","SYSBP","Systolic Blood Pressure",129,"mmHg"
"STUDY1","STUDY1-701-1118","SYSBP","Systolic Blood Pressure",127,"mmHg"
"STUDY1","STUDY1-701-1118","SYSBP","Systolic Blood Pressure",131,"mmHg"
"STUDY1","STUDY1-701-1118","SYSBP","Systolic Blood Pressure",130,"mmHg"
"STUDY1","STUDY1-701-1118","SYSBP","Systolic Blood Pressure",114,"mmHg"
"STUDY1","STUDY1-701-1118","SYSBP","Systolic Blood Pressure",130,"mmHg"
"STUDY1","STUDY1-701-1118","SYSBP","Systolic Blood Pressure",130,"mmHg"
"STUDY1","STUDY1-701-1118","SYSBP","Systolic Blood Pressure",114,"mmHg"
"STUDY1","STUDY1-701-1118","SYSBP","Systolic Blood Pressure",122,"mmHg"
"STUDY1","STUDY1-701-1118","SYSBP","Systolic Blood Pressure",129,"mmHg"
"STUDY1","STUDY1-701-1118","SYSBP","Systolic Blood Pressure",122,"mmHg"
"STUDY1","STUDY1-701-1118","SYSBP","Systolic Blood Pressure",122,"mmHg"
"STUDY1","STUDY1-701-1118","SYSBP","Systolic Blood Pressure",126,"mmHg"
"STUDY1","STUDY1-701-1118","SYSBP","Systolic Blood Pressure",106,"mmHg"
"STUDY1","STUDY1-701-1118","SYSBP","Systolic Blood Pressure",131,"mmHg"
"STUDY1","STUDY1-701-1118","SYSBP","Systolic Blood Pressure",123,"mmHg"
"STUDY1","STUDY1-701-1118","SYSBP","Systolic Blood Pressure",130,"mmHg"
"STUDY1","STUDY1-701-1118","SYSBP","Systolic Blood Pressure",130,"mmHg"
"STUDY1","STUDY1-701-1118","SYSBP","Systolic Blood Pressure",122,"mmHg"
"STUDY1","STUDY1-701-1118","SYSBP","Systolic Blood Pressure",122,"mmHg"
"STUDY1","STUDY1-701-1118","SYSBP","Systolic Blood Pressure",114,"mmHg"
"STUDY1","STUDY1-701-1118","SYSBP","Systolic Blood Pressure",136,"mmHg"
"STUDY1","STUDY1-701-1118","SYSBP","Systolic Blood Pressure",154,"mmHg"
"STUDY1","STUDY1-701-1118","SYSBP","Systolic Blood Pressure",135,"mmHg"
"STUDY1","STUDY1-701-1118","SYSBP","Systolic Blood Pressure",130,"mmHg"
"STUDY1","STUDY1-701-1118","SYSBP","Systolic Blood Pressure",107,"mmHg"
"STUDY1","STUDY1-701-1118","SYSBP","Systolic Blood Pressure",116,"mmHg"
"STUDY1","STUDY1-701-1118","SYSBP","Systolic Blood Pressure",121,"mmHg"
"STUDY1","STUDY1-701-1118","SYSBP","Systolic Blood Pressure",113,"mmHg"
"STUDY1","STUDY1-701-1118","SYSBP","Systolic Blood Pressure",122,"mmHg"
"STUDY1","STUDY1-701-1130","SYSBP","Systolic Blood Pressure",130,"mmHg"
"STUDY1","STUDY1-701-1130","SYSBP","Systolic Blood Pressure",121,"mmHg"
"STUDY1","STUDY1-701-1130","SYSBP","Systolic Blood Pressure",130,"mmHg"
"STUDY1","STUDY1-701-1130","SYSBP","Systolic Blood Pressure",135,"mmHg"
"STUDY1","STUDY1-701-1130","SYSBP","Systolic Blood Pressure",122,"mmHg"
"STUDY1","STUDY1-701-1130","SYSBP","Systolic Blood Pressure",131,"mmHg"
"STUDY1","STUDY1-701-1130","SYSBP","Systolic Blood Pressure",122,"mmHg"
"STUDY1","STUDY1-701-1130","SYSBP","Systolic Blood Pressure",122,"mmHg"
"STUDY1","STUDY1-701-1130","SYSBP","Systolic Blood Pressure",130,"mmHg"
"STUDY1","STUDY1-701-1130","SYSBP","Systolic Blood Pressure",145,"mmHg"
"STUDY1","STUDY1-701-1130","SYSBP","Systolic Blood Pressure",138,"mmHg"
"STUDY1","STUDY1-701-1130","SYSBP","Systolic Blood Pressure",131,"mmHg"
"STUDY1","STUDY1-701-1130","SYSBP","Systolic Blood Pressure",123,"mmHg"
"STUDY1","STUDY1-701-1130","SYSBP","Systolic Blood Pressure",131,"mmHg"
"STUDY1","STUDY1-701-1130","SYSBP","Systolic Blood Pressure",123,"mmHg"
"STUDY1","STUDY1-701-1130","SYSBP","Systolic Blood Pressure",100,"mmHg"
"STUDY1","STUDY1-701-1130","SYSBP","Systolic Blood Pressure",123,"mmHg"
"STUDY1","STUDY1-701-1130","SYSBP","Systolic Blood Pressure",123,"mmHg"
"STUDY1","STUDY1-701-1130","SYSBP","Systolic Blood Pressure",115,"mmHg"
"STUDY1","STUDY1-701-1130","SYSBP","Systolic Blood Pressure",115,"mmHg"
"STUDY1","STUDY1-701-1130","SYSBP","Systolic Blood Pressure",122,"mmHg"
"STUDY1","STUDY1-701-1130","SYSBP","Systolic Blood Pressure",123,"mmHg"
"STUDY1","STUDY1-701-1130","SYSBP","Systolic Blood Pressure",121,"mmHg"
"STUDY1","STUDY1-701-1130","SYSBP","Systolic Blood Pressure",136,"mmHg"
"STUDY1","STUDY1-701-1130","SYSBP","Systolic Blood Pressure",145,"mmHg"
"STUDY1","STUDY1-701-1130","SYSBP","Systolic Blood Pressure",138,"mmHg"
"STUDY1","STUDY1-701-1130","SYSBP","Systolic Blood Pressure",146,"mmHg"
"STUDY1","STUDY1-701-1130","SYSBP","Systolic Blood Pressure",114,"mmHg"
"STUDY1","STUDY1-701-1130","SYSBP","Systolic Blood Pressure",117,"mmHg"
"STUDY1","STUDY1-701-1130","SYSBP","Systolic Blood Pressure",122,"mmHg"
"STUDY1","STUDY1-701-1130","SYSBP","Systolic Blood Pressure",123,"mmHg"
"STUDY1","STUDY1-701-1130","SYSBP","Systolic Blood Pressure",141,"mmHg"
"STUDY1","STUDY1-701-1130","SYSBP","Systolic Blood Pressure",155,"mmHg"
"STUDY1","STUDY1-701-1130","SYSBP","Systolic Blood Pressure",114,"mmHg"
"STUDY1","STUDY1-701-1130","SYSBP","Systolic Blood Pressure",107,"mmHg"
"STUDY1","STUDY1-701-1130","SYSBP","Systolic Blood Pressure",130,"mmHg"
"STUDY1","STUDY1-701-1130","SYSBP","Systolic Blood Pressure",124,"mmHg"
"STUDY1","STUDY1-701-1130","SYSBP","Systolic Blood Pressure",124,"mmHg"
"STUDY1","STUDY1-701-1130","SYSBP","Systolic Blood Pressure",139,"mmHg"
"STUDY1","STUDY1-701-1130","SYSBP","Systolic Blood Pressure",140,"mmHg"
"STUDY1","STUDY1-701-1130","SYSBP","Systolic Blood Pressure",130,"mmHg"
"STUDY1","STUDY1-701-1130","SYSBP","Systolic Blood Pressure",155,"mmHg"
"STUDY1","STUDY1-701-1133","SYSBP","Systolic Blood Pressure",155,"mmHg"
"STUDY1","STUDY1-701-1133","SYSBP","Systolic Blood Pressure",146,"mmHg"
"STUDY1","STUDY1-701-1133","SYSBP","Systolic Blood Pressure",139,"mmHg"
"STUDY1","STUDY1-701-1133","SYSBP","Systolic Blood Pressure",150,"mmHg"
"STUDY1","STUDY1-701-1133","SYSBP","Systolic Blood Pressure",152,"mmHg"
"STUDY1","STUDY1-701-1133","SYSBP","Systolic Blood Pressure",139,"mmHg"
"STUDY1","STUDY1-701-1133","SYSBP","Systolic Blood Pressure",160,"mmHg"
"STUDY1","STUDY1-701-1133","SYSBP","Systolic Blood Pressure",138,"mmHg"
"STUDY1","STUDY1-701-1133","SYSBP","Systolic Blood Pressure",154,"mmHg"
"STUDY1","STUDY1-701-1133","SYSBP","Systolic Blood Pressure",137,"mmHg"
"STUDY1","STUDY1-701-1133","SYSBP","Systolic Blood Pressure",123,"mmHg"
"STUDY1","STUDY1-701-1133","SYSBP","Systolic Blood Pressure",124,"mmHg"
"STUDY1","STUDY1-701-1133","SYSBP","Systolic Blood Pressure",169,"mmHg"
"STUDY1","STUDY1-701-1133","SYSBP","Systolic Blood Pressure",137,"mmHg"
"STUDY1","STUDY1-701-1133","SYSBP","Systolic Blood Pressure",144,"mmHg"
"STUDY1","STUDY1-701-1133","SYSBP","Systolic Blood Pressure",181,"mmHg"
"STUDY1","STUDY1-701-1133","SYSBP","Systolic Blood Pressure",155,"mmHg"
"STUDY1","STUDY1-701-1133","SYSBP","Systolic Blood Pressure",160,"mmHg"
"STUDY1","STUDY1-701-1133","SYSBP","Systolic Blood Pressure",154,"mmHg"
"STUDY1","STUDY1-701-1133","SYSBP","Systolic Blood Pressure",138,"mmHg"
"STUDY1","STUDY1-701-1133","SYSBP","Systolic Blood Pressure",146,"mmHg"
"STUDY1","STUDY1-701-1133","SYSBP","Systolic Blood Pressure",161,"mmHg"
"STUDY1","STUDY1-701-1133","SYSBP","Systolic Blood Pressure",137,"mmHg"
"STUDY1","STUDY1-701-1133","SYSBP","Systolic Blood Pressure",137,"mmHg"
"STUDY1","STUDY1-701-1133","SYSBP","Systolic Blood Pressure",145,"mmHg"
"STUDY1","STUDY1-701-1133","SYSBP","Systolic Blood Pressure",154,"mmHg"
"STUDY1","STUDY1-701-1133","SYSBP","Systolic Blood Pressure",146,"mmHg"
"STUDY1","STUDY1-701-1133","SYSBP","Systolic Blood Pressure",129,"mmHg"
"STUDY1","STUDY1-701-1133","SYSBP","Systolic Blood Pressure",145,"mmHg"
"STUDY1","STUDY1-701-1133","SYSBP","Systolic Blood Pressure",146,"mmHg"
"STUDY1","STUDY1-701-1133","SYSBP","Systolic Blood Pressure",169,"mmHg"
"STUDY1","STUDY1-701-1133","SYSBP","Systolic Blood Pressure",153,"mmHg"
"STUDY1","STUDY1-701-1133","SYSBP","Systolic Blood Pressure",144,"mmHg"
"STUDY1","STUDY1-701-1133","SYSBP","Systolic Blood Pressure",159,"mmHg"
"STUDY1","STUDY1-701-1133","SYSBP","Systolic Blood Pressure",158,"mmHg"
"STUDY1","STUDY1-701-1133","SYSBP","Systolic Blood Pressure",130,"mmHg"
"STUDY1","STUDY1-701-1133","SYSBP","Systolic Blood Pressure",147,"mmHg"
"STUDY1","STUDY1-701-1133","SYSBP","Systolic Blood Pressure",137,"mmHg"
"STUDY1","STUDY1-701-1133","SYSBP","Systolic Blood Pressure",138,"mmHg"
"STUDY1","STUDY1-701-1133","SYSBP","Systolic Blood Pressure",137,"mmHg"
"STUDY1","STUDY1-701-1133","SYSBP","Systolic Blood Pressure",137,"mmHg"
"STUDY1","STUDY1-701-1133","SYSBP","Systolic Blood Pressure",122,"mmHg"
"STUDY1","STUDY1-701-1146","SYSBP","Systolic Blood Pressure",114,"mmHg"
"STUDY1","STUDY1-701-1146","SYSBP","Systolic Blood Pressure",122,"mmHg"
"STUDY1","STUDY1-701-1146","SYSBP","Systolic Blood Pressure",122,"mmHg"
"STUDY1","STUDY1-701-1146","SYSBP","Systolic Blood Pressure",114,"mmHg"
"STUDY1","STUDY1-701-1146","SYSBP","Systolic Blood Pressure",107,"mmHg"
"STUDY1","STUDY1-701-1146","SYSBP","Systolic Blood Pressure",108,"mmHg"
"STUDY1","STUDY1-701-1146","SYSBP","Systolic Blood Pressure",128,"mmHg"
"STUDY1","STUDY1-701-1146","SYSBP","Systolic Blood Pressure",124,"mmHg"
"STUDY1","STUDY1-701-1146","SYSBP","Systolic Blood Pressure",115,"mmHg"
"STUDY1","STUDY1-701-1146","SYSBP","Systolic Blood Pressure",113,"mmHg"
"STUDY1","STUDY1-701-1146","SYSBP","Systolic Blood Pressure",136,"mmHg"
"STUDY1","STUDY1-701-1146","SYSBP","Systolic Blood Pressure",121,"mmHg"
"STUDY1","STUDY1-701-1146","SYSBP","Systolic Blood Pressure",108,"mmHg"
"STUDY1","STUDY1-701-1146","SYSBP","Systolic Blood Pressure",104,"mmHg"
"STUDY1","STUDY1-701-1146","SYSBP","Systolic Blood Pressure",116,"mmHg"
"STUDY1","STUDY1-701-1146","SYSBP","Systolic Blood Pressure",121,"mmHg"
"STUDY1","STUDY1-701-1146","SYSBP","Systolic Blood Pressure",129,"mmHg"
"STUDY1","STUDY1-701-1146","SYSBP","Systolic Blood Pressure",122,"mmHg"
"STUDY1","STUDY1-701-1146","SYSBP","Systolic Blood Pressure",108,"mmHg"
"STUDY1","STUDY1-701-1146","SYSBP","Systolic Blood Pressure",115,"mmHg"
"STUDY1","STUDY1-701-1146","SYSBP","Systolic Blood Pressure",122,"mmHg"
"STUDY1","STUDY1-701-1146","SYSBP","Systolic Blood Pressure",115,"mmHg"
"STUDY1","STUDY1-701-1146","SYSBP","Systolic Blood Pressure",107,"mmHg"
"STUDY1","STUDY1-701-1146","SYSBP","Systolic Blood Pressure",116,"mmHg"
"STUDY1","STUDY1-701-1148","SYSBP","Systolic Blood Pressure",116,"mmHg"
"STUDY1","STUDY1-701-1148","SYSBP","Systolic Blood Pressure",115,"mmHg"
"STUDY1","STUDY1-701-1148","SYSBP","Systolic Blood Pressure",107,"mmHg"
"STUDY1","STUDY1-701-1148","SYSBP","Systolic Blood Pressure",115,"mmHg"
"STUDY1","STUDY1-701-1148","SYSBP","Systolic Blood Pressure",106,"mmHg"
"STUDY1","STUDY1-701-1148","SYSBP","Systolic Blood Pressure",100,"mmHg"
"STUDY1","STUDY1-701-1148","SYSBP","Systolic Blood Pressure",116,"mmHg"
"STUDY1","STUDY1-701-1148","SYSBP","Systolic Blood Pressure",116,"mmHg"
"STUDY1","STUDY1-701-1148","SYSBP","Systolic Blood Pressure",122,"mmHg"
"STUDY1","STUDY1-701-1148","SYSBP","Systolic Blood Pressure",132,"mmHg"
"STUDY1","STUDY1-701-1148","SYSBP","Systolic Blood Pressure",108,"mmHg"
"STUDY1","STUDY1-701-1148","SYSBP","Systolic Blood Pressure",117,"mmHg"
"STUDY1","STUDY1-701-1148","SYSBP","Systolic Blood Pressure",122,"mmHg"
"STUDY1","STUDY1-701-1148","SYSBP","Systolic Blood Pressure",113,"mmHg"
"STUDY1","STUDY1-701-1148","SYSBP","Systolic Blood Pressure",115,"mmHg"
"STUDY1","STUDY1-701-1148","SYSBP","Systolic Blood Pressure",115,"mmHg"
"STUDY1","STUDY1-701-1148","SYSBP","Systolic Blood Pressure",101,"mmHg"
"STUDY1","STUDY1-701-1148","SYSBP","Systolic Blood Pressure",95,"mmHg"
"STUDY1","STUDY1-701-1148","SYSBP","Systolic Blood Pressure",123,"mmHg"
"STUDY1","STUDY1-701-1148","SYSBP","Systolic Blood Pressure",116,"mmHg"
"STUDY1","STUDY1-701-1148","SYSBP","Systolic Blood Pressure",118,"mmHg"
"STUDY1","STUDY1-701-1148","SYSBP","Systolic Blood Pressure",115,"mmHg"
"STUDY1","STUDY1-701-1148","SYSBP","Systolic Blood Pressure",106,"mmHg"
"STUDY1","STUDY1-701-1148","SYSBP","Systolic Blood Pressure",108,"mmHg"
"STUDY1","STUDY1-701-1148","SYSBP","Systolic Blood Pressure",122,"mmHg"
"STUDY1","STUDY1-701-1148","SYSBP","Systolic Blood Pressure",110,"mmHg"
"STUDY1","STUDY1-701-1148","SYSBP","Systolic Blood Pressure",116,"mmHg"
"STUDY1","STUDY1-701-1148","SYSBP","Systolic Blood Pressure",114,"mmHg"
"STUDY1","STUDY1-701-1148","SYSBP","Systolic Blood Pressure",107,"mmHg"
"STUDY1","STUDY1-701-1148","SYSBP","Systolic Blood Pressure",108,"mmHg"
"STUDY1","STUDY1-701-1148","SYSBP","Systolic Blood Pressure",114,"mmHg"
"STUDY1","STUDY1-701-1148","SYSBP","Systolic Blood Pressure",107,"mmHg"
"STUDY1","STUDY1-701-1148","SYSBP","Systolic Blood Pressure",109,"mmHg"
"STUDY1","STUDY1-701-1148","SYSBP","Systolic Blood Pressure",116,"mmHg"
"STUDY1","STUDY1-701-1148","SYSBP","Systolic Blood Pressure",105,"mmHg"
"STUDY1","STUDY1-701-1148","SYSBP","Systolic Blood Pressure",102,"mmHg"
"STUDY1","STUDY1-701-1148","SYSBP","Systolic Blood Pressure",101,"mmHg"
"STUDY1","STUDY1-701-1148","SYSBP","Systolic Blood Pressure",96,"mmHg"
"STUDY1","STUDY1-701-1148","SYSBP","Systolic Blood Pressure",100,"mmHg"
"STUDY1","STUDY1-701-1148","SYSBP","Systolic Blood Pressure",107,"mmHg"
"STUDY1","STUDY1-701-1148","SYSBP","Systolic Blood Pressure",99,"mmHg"
"STUDY1","STUDY1-701-1148","SYSBP","Systolic Blood Pressure",95,"mmHg"
"STUDY1","STUDY1-701-1153","SYSBP","Systolic Blood Pressure",144,"mmHg"
"STUDY1","STUDY1-701-1153","SYSBP","Systolic Blood Pressure",129,"mmHg"
"STUDY1","STUDY1-701-1153","SYSBP","Systolic Blood Pressure",130,"mmHg"
"STUDY1","STUDY1-701-1153","SYSBP","Systolic Blood Pressure",150,"mmHg"
"STUDY1","STUDY1-701-1153","SYSBP","Systolic Blood Pressure",136,"mmHg"
"STUDY1","STUDY1-701-1153","SYSBP","Systolic Blood Pressure",142,"mmHg"
"STUDY1","STUDY1-701-1153","SYSBP","Systolic Blood Pressure",142,"mmHg"
"STUDY1","STUDY1-701-1153","SYSBP","Systolic Blood Pressure",137,"mmHg"
"STUDY1","STUDY1-701-1153","SYSBP","Systolic Blood Pressure",138,"mmHg"
"STUDY1","STUDY1-701-1153","SYSBP","Systolic Blood Pressure",146,"mmHg"
"STUDY1","STUDY1-701-1153","SYSBP","Systolic Blood Pressure",138,"mmHg"
"STUDY1","STUDY1-701-1153","SYSBP","Systolic Blood Pressure",146,"mmHg"
"STUDY1","STUDY1-701-1153","SYSBP","Systolic Blood Pressure",142,"mmHg"
"STUDY1","STUDY1-701-1153","SYSBP","Systolic Blood Pressure",154,"mmHg"
"STUDY1","STUDY1-701-1153","SYSBP","Systolic Blood Pressure",141,"mmHg"
"STUDY1","STUDY1-701-1153","SYSBP","Systolic Blood Pressure",138,"mmHg"
"STUDY1","STUDY1-701-1153","SYSBP","Systolic Blood Pressure",136,"mmHg"
"STUDY1","STUDY1-701-1153","SYSBP","Systolic Blood Pressure",138,"mmHg"
"STUDY1","STUDY1-701-1153","SYSBP","Systolic Blood Pressure",145,"mmHg"
"STUDY1","STUDY1-701-1153","SYSBP","Systolic Blood Pressure",122,"mmHg"
"STUDY1","STUDY1-701-1153","SYSBP","Systolic Blood Pressure",132,"mmHg"
"STUDY1","STUDY1-701-1153","SYSBP","Systolic Blood Pressure",145,"mmHg"
"STUDY1","STUDY1-701-1153","SYSBP","Systolic Blood Pressure",151,"mmHg"
"STUDY1","STUDY1-701-1153","SYSBP","Systolic Blood Pressure",154,"mmHg"
"STUDY1","STUDY1-701-1153","SYSBP","Systolic Blood Pressure",144,"mmHg"
"STUDY1","STUDY1-701-1153","SYSBP","Systolic Blood Pressure",139,"mmHg"
"STUDY1","STUDY1-701-1153","SYSBP","Systolic Blood Pressure",138,"mmHg"
"STUDY1","STUDY1-701-1153","SYSBP","Systolic Blood Pressure",161,"mmHg"
"STUDY1","STUDY1-701-1153","SYSBP","Systolic Blood Pressure",140,"mmHg"
"STUDY1","STUDY1-701-1153","SYSBP","Systolic Blood Pressure",145,"mmHg"
"STUDY1","STUDY1-701-1153","SYSBP","Systolic Blood Pressure",150,"mmHg"
"STUDY1","STUDY1-701-1153","SYSBP","Systolic Blood Pressure",145,"mmHg"
"STUDY1","STUDY1-701-1153","SYSBP","Systolic Blood Pressure",154,"mmHg"
"STUDY1","STUDY1-701-1153","SYSBP","Systolic Blood Pressure",144,"mmHg"
"STUDY1","STUDY1-701-1153","SYSBP","Systolic Blood Pressure",138,"mmHg"
"STUDY1","STUDY1-701-1153","SYSBP","Systolic Blood Pressure",138,"mmHg"
"STUDY1","STUDY1-701-1153","SYSBP","Systolic Blood Pressure",153,"mmHg"
"STUDY1","STUDY1-701-1153","SYSBP","Systolic Blood Pressure",140,"mmHg"
"STUDY1","STUDY1-701-1153","SYSBP","Systolic Blood Pressure",145,"mmHg"
"STUDY1","STUDY1-701-1153","SYSBP","Systolic Blood Pressure",160,"mmHg"
"STUDY1","STUDY1-701-1153","SYSBP","Systolic Blood Pressure",152,"mmHg"
"STUDY1","STUDY1-701-1153","SYSBP","Systolic Blood Pressure",161,"mmHg"
"STUDY1","STUDY1-701-1180","SYSBP","Systolic Blood Pressure",146,"mmHg"
"STUDY1","STUDY1-701-1180","SYSBP","Systolic Blood Pressure",144,"mmHg"
"STUDY1","STUDY1-701-1180","SYSBP","Systolic Blood Pressure",138,"mmHg"
"STUDY1","STUDY1-701-1180","SYSBP","Systolic Blood Pressure",134,"mmHg"
"STUDY1","STUDY1-701-1180","SYSBP","Systolic Blood Pressure",130,"mmHg"
"STUDY1","STUDY1-701-1180","SYSBP","Systolic Blood Pressure",130,"mmHg"
"STUDY1","STUDY1-701-1180","SYSBP","Systolic Blood Pressure",132,"mmHg"
"STUDY1","STUDY1-701-1180","SYSBP","Systolic Blood Pressure",130,"mmHg"
"STUDY1","STUDY1-701-1180","SYSBP","Systolic Blood Pressure",130,"mmHg"
"STUDY1","STUDY1-701-1180","SYSBP","Systolic Blood Pressure",144,"mmHg"
"STUDY1","STUDY1-701-1180","SYSBP","Systolic Blood Pressure",131,"mmHg"
"STUDY1","STUDY1-701-1180","SYSBP","Systolic Blood Pressure",138,"mmHg"
"STUDY1","STUDY1-701-1180","SYSBP","Systolic Blood Pressure",138,"mmHg"
"STUDY1","STUDY1-701-1180","SYSBP","Systolic Blood Pressure",126,"mmHg"
"STUDY1","STUDY1-701-1180","SYSBP","Systolic Blood Pressure",134,"mmHg"
"STUDY1","STUDY1-701-1180","SYSBP","Systolic Blood Pressure",124,"mmHg"
"STUDY1","STUDY1-701-1180","SYSBP","Systolic Blood Pressure",115,"mmHg"
"STUDY1","STUDY1-701-1180","SYSBP","Systolic Blood Pressure",129,"mmHg"
"STUDY1","STUDY1-701-1180","SYSBP","Systolic Blood Pressure",120,"mmHg"
"STUDY1","STUDY1-701-1180","SYSBP","Systolic Blood Pressure",122,"mmHg"
"STUDY1","STUDY1-701-1180","SYSBP","Systolic Blood Pressure",115,"mmHg"
"STUDY1","STUDY1-701-1180","SYSBP","Systolic Blood Pressure",138,"mmHg"
"STUDY1","STUDY1-701-1180","SYSBP","Systolic Blood Pressure",130,"mmHg"
"STUDY1","STUDY1-701-1180","SYSBP","Systolic Blood Pressure",131,"mmHg"
"STUDY1","STUDY1-701-1181","SYSBP","Systolic Blood Pressure",137,"mmHg"
"STUDY1","STUDY1-701-1181","SYSBP","Systolic Blood Pressure",113,"mmHg"
"STUDY1","STUDY1-701-1181","SYSBP","Systolic Blood Pressure",136,"mmHg"
"STUDY1","STUDY1-701-1181","SYSBP","Systolic Blood Pressure",142,"mmHg"
"STUDY1","STUDY1-701-1181","SYSBP","Systolic Blood Pressure",128,"mmHg"
"STUDY1","STUDY1-701-1181","SYSBP","Systolic Blood Pressure",130,"mmHg"
"STUDY1","STUDY1-701-1181","SYSBP","Systolic Blood Pressure",146,"mmHg"
"STUDY1","STUDY1-701-1181","SYSBP","Systolic Blood Pressure",130,"mmHg"
"STUDY1","STUDY1-701-1181","SYSBP","Systolic Blood Pressure",129,"mmHg"
"STUDY1","STUDY1-701-1181","SYSBP","Systolic Blood Pressure",146,"mmHg"
"STUDY1","STUDY1-701-1181","SYSBP","Systolic Blood Pressure",139,"mmHg"
"STUDY1","STUDY1-701-1181","SYSBP","Systolic Blood Pressure",146,"mmHg"
"STUDY1","STUDY1-701-1181","SYSBP","Systolic Blood Pressure",137,"mmHg"
"STUDY1","STUDY1-701-1181","SYSBP","Systolic Blood Pressure",113,"mmHg"
"STUDY1","STUDY1-701-1181","SYSBP","Systolic Blood Pressure",120,"mmHg"
"STUDY1","STUDY1-701-1188","SYSBP","Systolic Blood Pressure",139,"mmHg"
"STUDY1","STUDY1-701-1188","SYSBP","Systolic Blood Pressure",145,"mmHg"
"STUDY1","STUDY1-701-1188","SYSBP","Systolic Blood Pressure",131,"mmHg"
"STUDY1","STUDY1-701-1188","SYSBP","Systolic Blood Pressure",143,"mmHg"
"STUDY1","STUDY1-701-1188","SYSBP","Systolic Blood Pressure",123,"mmHg"
"STUDY1","STUDY1-701-1188","SYSBP","Systolic Blood Pressure",122,"mmHg"
"STUDY1","STUDY1-701-1188","SYSBP","Systolic Blood Pressure",135,"mmHg"
"STUDY1","STUDY1-701-1188","SYSBP","Systolic Blood Pressure",124,"mmHg"
"STUDY1","STUDY1-701-1188","SYSBP","Systolic Blood Pressure",130,"mmHg"
"STUDY1","STUDY1-701-1188","SYSBP","Systolic Blood Pressure",140,"mmHg"
"STUDY1","STUDY1-701-1188","SYSBP","Systolic Blood Pressure",123,"mmHg"
"STUDY1","STUDY1-701-1188","SYSBP","Systolic Blood Pressure",139,"mmHg"
"STUDY1","STUDY1-701-1188","SYSBP","Systolic Blood Pressure",147,"mmHg"
"STUDY1","STUDY1-701-1188","SYSBP","Systolic Blood Pressure",139,"mmHg"
"STUDY1","STUDY1-701-1188","SYSBP","Systolic Blood Pressure",139,"mmHg"
"STUDY1","STUDY1-701-1188","SYSBP","Systolic Blood Pressure",145,"mmHg"
"STUDY1","STUDY1-701-1188","SYSBP","Systolic Blood Pressure",143,"mmHg"
"STUDY1","STUDY1-701-1188","SYSBP","Systolic Blood Pressure",146,"mmHg"
"STUDY1","STUDY1-701-1188","SYSBP","Systolic Blood Pressure",148,"mmHg"
"STUDY1","STUDY1-701-1188","SYSBP","Systolic Blood Pressure",147,"mmHg"
"STUDY1","STUDY1-701-1188","SYSBP","Systolic Blood Pressure",146,"mmHg"
"STUDY1","STUDY1-701-1188","SYSBP","Systolic Blood Pressure",140,"mmHg"
"STUDY1","STUDY1-701-1188","SYSBP","Systolic Blood Pressure",131,"mmHg"
"STUDY1","STUDY1-701-1188","SYSBP","Systolic Blood Pressure",138,"mmHg"
"STUDY1","STUDY1-701-1188","SYSBP","Systolic Blood Pressure",147,"mmHg"
"STUDY1","STUDY1-701-1188","SYSBP","Systolic Blood Pressure",131,"mmHg"
"STUDY1","STUDY1-701-1188","SYSBP","Systolic Blood Pressure",146,"mmHg"
"STUDY1","STUDY1-701-1192","SYSBP","Systolic Blood Pressure",168,"mmHg"
"STUDY1","STUDY1-701-1192","SYSBP","Systolic Blood Pressure",154,"mmHg"
"STUDY1","STUDY1-701-1192","SYSBP","Systolic Blood Pressure",168,"mmHg"
"STUDY1","STUDY1-701-1192","SYSBP","Systolic Blood Pressure",160,"mmHg"
"STUDY1","STUDY1-701-1192","SYSBP","Systolic Blood Pressure",154,"mmHg"
"STUDY1","STUDY1-701-1192","SYSBP","Systolic Blood Pressure",147,"mmHg"
"STUDY1","STUDY1-701-1192","SYSBP","Systolic Blood Pressure",162,"mmHg"
"STUDY1","STUDY1-701-1192","SYSBP","Systolic Blood Pressure",154,"mmHg"
"STUDY1","STUDY1-701-1192","SYSBP","Systolic Blood Pressure",156,"mmHg"
